words,letterColor,corrAns,congruent,lettertest,corresp,neutral_trials.thisRepN,neutral_trials.thisTrialN,neutral_trials.thisN,neutral_trials.thisIndex,congruent_trials.thisRepN,congruent_trials.thisTrialN,congruent_trials.thisN,congruent_trials.thisIndex,incongruent_trials.thisRepN,incongruent_trials.thisTrialN,incongruent_trials.thisN,incongruent_trials.thisIndex,neutral_trials_2.thisRepN,neutral_trials_2.thisTrialN,neutral_trials_2.thisN,neutral_trials_2.thisIndex,congruent_trials_2.thisRepN,congruent_trials_2.thisTrialN,congruent_trials_2.thisN,congruent_trials_2.thisIndex,incongruent_trials_2.thisRepN,incongruent_trials_2.thisTrialN,incongruent_trials_2.thisN,incongruent_trials_2.thisIndex,two_back_trial.thisRepN,two_back_trial.thisTrialN,two_back_trial.thisN,two_back_trial.thisIndex,two_back_trial_.thisRepN,two_back_trial_.thisTrialN,two_back_trial_.thisN,two_back_trial_.thisIndex,text_4.started,key_resp_2.started,key_resp_2.keys,key_resp_2.rt,inital_text.started,ready.started,instrText.started,resp.started,word.started,resp.keys,resp.corr,resp.rt,ready_2.started,instrText_2.started,ready_3.started,instrText_3.started,text.started,key_resp.started,key_resp.keys,key_resp.rt,bhastrika_vid.started,bhas_text.started,text_5.started,key_resp_6.started,key_resp_6.keys,key_resp_6.rt,text_7.started,key_resp_3.started,key_resp_3.keys,key_resp_3.corr,sound_2.started,key_resp_3.rt,sound_2.stopped,text_7.stopped,key_resp_3.stopped,text_8.started,key_resp_5.started,key_resp_5.keys,key_resp_5.rt,text_3.started,participant,date,expName,psychopyVersion,frameRate,
,,,,,,,,,,,,,,,,,,,,,,,,,,,,,,,,,,,,,,21.398666199995205,21.398666199995205,space,1.0155074999202043,,,,,,,,,,,,,,,,,,,,,,,,,,,,,,,,,,,,,01,2023-03-31_13h55.17.573,divine,2022.2.5,59.923836795525055,
red,black,r,0,,,0,0,0,6,,,,,,,,,,,,,,,,,,,,,,,,,,,,,,,,,22.43628639995586,322.4512298000045,322.4512298000045,329.2857385999523,329.2857385999523,r,1,0.8966647000052035,,,,,,,,,,,,,,,,,,,,,,,,,,,,,01,2023-03-31_13h55.17.573,divine,2022.2.5,59.923836795525055,
black,black,x,1,,,0,1,1,16,,,,,,,,,,,,,,,,,,,,,,,,,,,,,,,,,,,,330.702554199961,330.702554199961,x,1,0.9768152000615373,,,,,,,,,,,,,,,,,,,,,,,,,,,,,01,2023-03-31_13h55.17.573,divine,2022.2.5,59.923836795525055,
blue,black,b,0,,,0,2,2,45,,,,,,,,,,,,,,,,,,,,,,,,,,,,,,,,,,,,332.2027591000078,332.2027591000078,b,1,0.6279725000495091,,,,,,,,,,,,,,,,,,,,,,,,,,,,,01,2023-03-31_13h55.17.573,divine,2022.2.5,59.923836795525055,
green,black,g,0,,,0,3,3,39,,,,,,,,,,,,,,,,,,,,,,,,,,,,,,,,,,,,333.35308240004815,333.35308240004815,g,1,0.5016567000420764,,,,,,,,,,,,,,,,,,,,,,,,,,,,,01,2023-03-31_13h55.17.573,divine,2022.2.5,59.923836795525055,
red,black,r,0,,,0,4,4,14,,,,,,,,,,,,,,,,,,,,,,,,,,,,,,,,,,,,334.386561500025,334.386561500025,r,1,0.5881626999471337,,,,,,,,,,,,,,,,,,,,,,,,,,,,,01,2023-03-31_13h55.17.573,divine,2022.2.5,59.923836795525055,
red,black,r,0,,,0,5,5,30,,,,,,,,,,,,,,,,,,,,,,,,,,,,,,,,,,,,335.503376299981,335.503376299981,r,1,0.551013300078921,,,,,,,,,,,,,,,,,,,,,,,,,,,,,01,2023-03-31_13h55.17.573,divine,2022.2.5,59.923836795525055,
red,black,r,0,,,0,6,6,44,,,,,,,,,,,,,,,,,,,,,,,,,,,,,,,,,,,,336.586835199967,336.586835199967,r,1,0.43523050006479025,,,,,,,,,,,,,,,,,,,,,,,,,,,,,01,2023-03-31_13h55.17.573,divine,2022.2.5,59.923836795525055,
green,black,g,0,,,0,7,7,27,,,,,,,,,,,,,,,,,,,,,,,,,,,,,,,,,,,,337.55369570001494,337.55369570001494,g,1,0.6211626000003889,,,,,,,,,,,,,,,,,,,,,,,,,,,,,01,2023-03-31_13h55.17.573,divine,2022.2.5,59.923836795525055,
green,black,g,0,,,0,8,8,43,,,,,,,,,,,,,,,,,,,,,,,,,,,,,,,,,,,,338.7038869999815,338.7038869999815,g,1,0.5911639999831095,,,,,,,,,,,,,,,,,,,,,,,,,,,,,01,2023-03-31_13h55.17.573,divine,2022.2.5,59.923836795525055,
red,black,r,0,,,0,9,9,24,,,,,,,,,,,,,,,,,,,,,,,,,,,,,,,,,,,,339.82075579999946,339.82075579999946,r,1,0.4820572000462562,,,,,,,,,,,,,,,,,,,,,,,,,,,,,01,2023-03-31_13h55.17.573,divine,2022.2.5,59.923836795525055,
black,black,x,1,,,0,10,10,12,,,,,,,,,,,,,,,,,,,,,,,,,,,,,,,,,,,,340.8208669000305,340.8208669000305,x,1,0.5376346999546513,,,,,,,,,,,,,,,,,,,,,,,,,,,,,01,2023-03-31_13h55.17.573,divine,2022.2.5,59.923836795525055,
red,black,r,0,,,0,11,11,40,,,,,,,,,,,,,,,,,,,,,,,,,,,,,,,,,,,,341.8877684000181,341.8877684000181,r,1,0.5105654000071809,,,,,,,,,,,,,,,,,,,,,,,,,,,,,01,2023-03-31_13h55.17.573,divine,2022.2.5,59.923836795525055,
black,black,x,1,,,0,12,12,26,,,,,,,,,,,,,,,,,,,,,,,,,,,,,,,,,,,,342.9211238999851,342.9211238999851,x,1,0.6630177000770345,,,,,,,,,,,,,,,,,,,,,,,,,,,,,01,2023-03-31_13h55.17.573,divine,2022.2.5,59.923836795525055,
blue,black,b,0,,,0,13,13,11,,,,,,,,,,,,,,,,,,,,,,,,,,,,,,,,,,,,344.1047454000218,344.1047454000218,b,1,0.6379362000152469,,,,,,,,,,,,,,,,,,,,,,,,,,,,,01,2023-03-31_13h55.17.573,divine,2022.2.5,59.923836795525055,
blue,black,b,0,,,0,14,14,15,,,,,,,,,,,,,,,,,,,,,,,,,,,,,,,,,,,,345.27164619998075,345.27164619998075,b,1,0.6789043999742717,,,,,,,,,,,,,,,,,,,,,,,,,,,,,01,2023-03-31_13h55.17.573,divine,2022.2.5,59.923836795525055,
green,black,g,0,,,0,15,15,13,,,,,,,,,,,,,,,,,,,,,,,,,,,,,,,,,,,,346.4717523000436,346.4717523000436,g,1,0.5027025999734178,,,,,,,,,,,,,,,,,,,,,,,,,,,,,01,2023-03-31_13h55.17.573,divine,2022.2.5,59.923836795525055,
black,black,x,1,,,0,16,16,20,,,,,,,,,,,,,,,,,,,,,,,,,,,,,,,,,,,,347.5053615999641,347.5053615999641,x,1,0.677537800045684,,,,,,,,,,,,,,,,,,,,,,,,,,,,,01,2023-03-31_13h55.17.573,divine,2022.2.5,59.923836795525055,
green,black,g,0,,,0,17,17,17,,,,,,,,,,,,,,,,,,,,,,,,,,,,,,,,,,,,348.7053778000409,348.7053778000409,g,1,0.5814131000079215,,,,,,,,,,,,,,,,,,,,,,,,,,,,,01,2023-03-31_13h55.17.573,divine,2022.2.5,59.923836795525055,
red,black,r,0,,,0,18,18,10,,,,,,,,,,,,,,,,,,,,,,,,,,,,,,,,,,,,349.80562729993835,349.80562729993835,r,1,0.4727524999761954,,,,,,,,,,,,,,,,,,,,,,,,,,,,,01,2023-03-31_13h55.17.573,divine,2022.2.5,59.923836795525055,
black,black,x,1,,,0,19,19,8,,,,,,,,,,,,,,,,,,,,,,,,,,,,,,,,,,,,350.8058243000414,350.8058243000414,x,1,0.7132547999499366,,,,,,,,,,,,,,,,,,,,,,,,,,,,,01,2023-03-31_13h55.17.573,divine,2022.2.5,59.923836795525055,
green,black,g,0,,,0,20,20,21,,,,,,,,,,,,,,,,,,,,,,,,,,,,,,,,,,,,352.0393259000266,352.0393259000266,g,1,0.6711027999408543,,,,,,,,,,,,,,,,,,,,,,,,,,,,,01,2023-03-31_13h55.17.573,divine,2022.2.5,59.923836795525055,
blue,black,b,0,,,0,21,21,35,,,,,,,,,,,,,,,,,,,,,,,,,,,,,,,,,,,,353.2396268999437,353.2396268999437,b,1,0.535172599949874,,,,,,,,,,,,,,,,,,,,,,,,,,,,,01,2023-03-31_13h55.17.573,divine,2022.2.5,59.923836795525055,
blue,black,b,0,,,0,22,22,3,,,,,,,,,,,,,,,,,,,,,,,,,,,,,,,,,,,,354.30637889995705,354.30637889995705,g,0,0.8839880999876186,,,,,,,,,,,,,,,,,,,,,,,,,,,,,01,2023-03-31_13h55.17.573,divine,2022.2.5,59.923836795525055,
blue,black,b,0,,,0,23,23,25,,,,,,,,,,,,,,,,,,,,,,,,,,,,,,,,,,,,355.7236841999693,355.7236841999693,b,1,0.5791980000212789,,,,,,,,,,,,,,,,,,,,,,,,,,,,,01,2023-03-31_13h55.17.573,divine,2022.2.5,59.923836795525055,
red,black,r,0,,,0,24,24,36,,,,,,,,,,,,,,,,,,,,,,,,,,,,,,,,,,,,356.8234946000157,356.8234946000157,r,1,0.5752600999549031,,,,,,,,,,,,,,,,,,,,,,,,,,,,,01,2023-03-31_13h55.17.573,divine,2022.2.5,59.923836795525055,
red,black,r,0,,,0,25,25,46,,,,,,,,,,,,,,,,,,,,,,,,,,,,,,,,,,,,357.92372740001883,357.92372740001883,r,1,0.5550256000133231,,,,,,,,,,,,,,,,,,,,,,,,,,,,,01,2023-03-31_13h55.17.573,divine,2022.2.5,59.923836795525055,
red,black,r,0,,,0,26,26,2,,,,,,,,,,,,,,,,,,,,,,,,,,,,,,,,,,,,359.0071327999467,359.0071327999467,r,1,0.48778279998805374,,,,,,,,,,,,,,,,,,,,,,,,,,,,,01,2023-03-31_13h55.17.573,divine,2022.2.5,59.923836795525055,
red,black,r,0,,,0,27,27,22,,,,,,,,,,,,,,,,,,,,,,,,,,,,,,,,,,,,360.0239423000021,360.0239423000021,r,1,0.4866137000499293,,,,,,,,,,,,,,,,,,,,,,,,,,,,,01,2023-03-31_13h55.17.573,divine,2022.2.5,59.923836795525055,
black,black,x,1,,,0,28,28,48,,,,,,,,,,,,,,,,,,,,,,,,,,,,,,,,,,,,361.0408122999361,361.0408122999361,x,1,0.6383708999492228,,,,,,,,,,,,,,,,,,,,,,,,,,,,,01,2023-03-31_13h55.17.573,divine,2022.2.5,59.923836795525055,
red,black,r,0,,,0,29,29,18,,,,,,,,,,,,,,,,,,,,,,,,,,,,,,,,,,,,362.20770200004335,362.20770200004335,r,1,0.5270267999731004,,,,,,,,,,,,,,,,,,,,,,,,,,,,,01,2023-03-31_13h55.17.573,divine,2022.2.5,59.923836795525055,
black,black,x,1,,,0,30,30,4,,,,,,,,,,,,,,,,,,,,,,,,,,,,,,,,,,,,363.2578138000099,363.2578138000099,x,1,0.7177341999486089,,,,,,,,,,,,,,,,,,,,,,,,,,,,,01,2023-03-31_13h55.17.573,divine,2022.2.5,59.923836795525055,
blue,black,b,0,,,0,31,31,29,,,,,,,,,,,,,,,,,,,,,,,,,,,,,,,,,,,,364.5080425000051,364.5080425000051,b,1,0.5790516999550164,,,,,,,,,,,,,,,,,,,,,,,,,,,,,01,2023-03-31_13h55.17.573,divine,2022.2.5,59.923836795525055,
black,black,x,1,,,0,32,32,38,,,,,,,,,,,,,,,,,,,,,,,,,,,,,,,,,,,,365.6085538000334,365.6085538000334,x,1,0.5183617000002414,,,,,,,,,,,,,,,,,,,,,,,,,,,,,01,2023-03-31_13h55.17.573,divine,2022.2.5,59.923836795525055,
green,black,g,0,,,0,33,33,9,,,,,,,,,,,,,,,,,,,,,,,,,,,,,,,,,,,,366.65835739998147,366.65835739998147,g,1,0.5959915000712499,,,,,,,,,,,,,,,,,,,,,,,,,,,,,01,2023-03-31_13h55.17.573,divine,2022.2.5,59.923836795525055,
green,black,g,0,,,0,34,34,33,,,,,,,,,,,,,,,,,,,,,,,,,,,,,,,,,,,,367.7752229999751,367.7752229999751,g,1,0.5599904999835417,,,,,,,,,,,,,,,,,,,,,,,,,,,,,01,2023-03-31_13h55.17.573,divine,2022.2.5,59.923836795525055,
blue,black,b,0,,,0,35,35,41,,,,,,,,,,,,,,,,,,,,,,,,,,,,,,,,,,,,368.85882429999765,368.85882429999765,b,1,0.8593929000198841,,,,,,,,,,,,,,,,,,,,,,,,,,,,,01,2023-03-31_13h55.17.573,divine,2022.2.5,59.923836795525055,
black,black,x,1,,,0,36,36,0,,,,,,,,,,,,,,,,,,,,,,,,,,,,,,,,,,,,370.2423311000457,370.2423311000457,x,1,0.5638813999248669,,,,,,,,,,,,,,,,,,,,,,,,,,,,,01,2023-03-31_13h55.17.573,divine,2022.2.5,59.923836795525055,
blue,black,b,0,,,0,37,37,19,,,,,,,,,,,,,,,,,,,,,,,,,,,,,,,,,,,,371.3257747000316,371.3257747000316,b,1,0.6413194999331608,,,,,,,,,,,,,,,,,,,,,,,,,,,,,01,2023-03-31_13h55.17.573,divine,2022.2.5,59.923836795525055,
green,black,g,0,,,0,38,38,1,,,,,,,,,,,,,,,,,,,,,,,,,,,,,,,,,,,,372.4926150999963,372.4926150999963,g,1,0.45844159997068346,,,,,,,,,,,,,,,,,,,,,,,,,,,,,01,2023-03-31_13h55.17.573,divine,2022.2.5,59.923836795525055,
red,black,r,0,,,0,39,39,34,,,,,,,,,,,,,,,,,,,,,,,,,,,,,,,,,,,,373.47610129998066,373.47610129998066,r,1,0.41933559998869896,,,,,,,,,,,,,,,,,,,,,,,,,,,,,01,2023-03-31_13h55.17.573,divine,2022.2.5,59.923836795525055,
blue,black,b,0,,,0,40,40,37,,,,,,,,,,,,,,,,,,,,,,,,,,,,,,,,,,,,374.42625200003386,374.42625200003386,b,1,0.5641842000186443,,,,,,,,,,,,,,,,,,,,,,,,,,,,,01,2023-03-31_13h55.17.573,divine,2022.2.5,59.923836795525055,
red,black,r,0,,,0,41,41,28,,,,,,,,,,,,,,,,,,,,,,,,,,,,,,,,,,,,375.50975259998813,375.50975259998813,r,1,0.3849272000370547,,,,,,,,,,,,,,,,,,,,,,,,,,,,,01,2023-03-31_13h55.17.573,divine,2022.2.5,59.923836795525055,
blue,black,b,0,,,0,42,42,23,,,,,,,,,,,,,,,,,,,,,,,,,,,,,,,,,,,,376.42657470004633,376.42657470004633,b,1,0.5244089999468997,,,,,,,,,,,,,,,,,,,,,,,,,,,,,01,2023-03-31_13h55.17.573,divine,2022.2.5,59.923836795525055,
blue,black,b,0,,,0,43,43,47,,,,,,,,,,,,,,,,,,,,,,,,,,,,,,,,,,,,377.4768088000128,377.4768088000128,r,0,0.4017098000040278,,,,,,,,,,,,,,,,,,,,,,,,,,,,,01,2023-03-31_13h55.17.573,divine,2022.2.5,59.923836795525055,
black,black,x,1,,,0,44,44,32,,,,,,,,,,,,,,,,,,,,,,,,,,,,,,,,,,,,378.41025549999904,378.41025549999904,x,1,0.6125861000036821,,,,,,,,,,,,,,,,,,,,,,,,,,,,,01,2023-03-31_13h55.17.573,divine,2022.2.5,59.923836795525055,
blue,black,b,0,,,0,45,45,7,,,,,,,,,,,,,,,,,,,,,,,,,,,,,,,,,,,,379.54369149997365,379.54369149997365,x,0,0.5348382000811398,,,,,,,,,,,,,,,,,,,,,,,,,,,,,01,2023-03-31_13h55.17.573,divine,2022.2.5,59.923836795525055,
blue,black,b,0,,,0,46,46,31,,,,,,,,,,,,,,,,,,,,,,,,,,,,,,,,,,,,380.6105977999978,380.6105977999978,b,1,0.6444851000560448,,,,,,,,,,,,,,,,,,,,,,,,,,,,,01,2023-03-31_13h55.17.573,divine,2022.2.5,59.923836795525055,
black,black,x,1,,,0,47,47,42,,,,,,,,,,,,,,,,,,,,,,,,,,,,,,,,,,,,381.77774900000077,381.77774900000077,x,1,0.6688488000072539,,,,,,,,,,,,,,,,,,,,,,,,,,,,,01,2023-03-31_13h55.17.573,divine,2022.2.5,59.923836795525055,
green,black,g,0,,,0,48,48,49,,,,,,,,,,,,,,,,,,,,,,,,,,,,,,,,,,,,382.9776484000031,382.9776484000031,g,1,0.517414000001736,,,,,,,,,,,,,,,,,,,,,,,,,,,,,01,2023-03-31_13h55.17.573,divine,2022.2.5,59.923836795525055,
green,black,g,0,,,0,49,49,5,,,,,,,,,,,,,,,,,,,,,,,,,,,,,,,,,,,,384.0277849000413,384.0277849000413,g,1,1.067466999986209,,,,,,,,,,,,,,,,,,,,,,,,,,,,,01,2023-03-31_13h55.17.573,divine,2022.2.5,59.923836795525055,
black,black,x,1,,,,,,,0,0,0,30,,,,,,,,,,,,,,,,,,,,,,,,,,,,,,,,389.74537539994344,389.74537539994344,x,1,0.56499199999962,385.1281254000496,385.1281254000496,,,,,,,,,,,,,,,,,,,,,,,,,,,01,2023-03-31_13h55.17.573,divine,2022.2.5,59.923836795525055,
red,red,r,1,,,,,,,0,1,1,4,,,,,,,,,,,,,,,,,,,,,,,,,,,,,,,,390.82920170004945,390.82920170004945,r,1,0.5375119999516755,,,,,,,,,,,,,,,,,,,,,,,,,,,,,01,2023-03-31_13h55.17.573,divine,2022.2.5,59.923836795525055,
green,green,g,1,,,,,,,0,2,2,18,,,,,,,,,,,,,,,,,,,,,,,,,,,,,,,,391.8961438999977,391.8961438999977,g,1,0.6063243000535294,,,,,,,,,,,,,,,,,,,,,,,,,,,,,01,2023-03-31_13h55.17.573,divine,2022.2.5,59.923836795525055,
blue,blue,b,1,,,,,,,0,3,3,40,,,,,,,,,,,,,,,,,,,,,,,,,,,,,,,,393.0292342000175,393.0292342000175,b,1,0.48179670004174113,,,,,,,,,,,,,,,,,,,,,,,,,,,,,01,2023-03-31_13h55.17.573,divine,2022.2.5,59.923836795525055,
green,green,g,1,,,,,,,0,4,4,45,,,,,,,,,,,,,,,,,,,,,,,,,,,,,,,,394.02939020004123,394.02939020004123,g,1,0.5289909000275657,,,,,,,,,,,,,,,,,,,,,,,,,,,,,01,2023-03-31_13h55.17.573,divine,2022.2.5,59.923836795525055,
blue,blue,b,1,,,,,,,0,5,5,11,,,,,,,,,,,,,,,,,,,,,,,,,,,,,,,,395.07964979996905,395.07964979996905,b,1,0.6708038999931887,,,,,,,,,,,,,,,,,,,,,,,,,,,,,01,2023-03-31_13h55.17.573,divine,2022.2.5,59.923836795525055,
red,red,r,1,,,,,,,0,6,6,37,,,,,,,,,,,,,,,,,,,,,,,,,,,,,,,,396.2797838000115,396.2797838000115,r,1,0.41441770002711564,,,,,,,,,,,,,,,,,,,,,,,,,,,,,01,2023-03-31_13h55.17.573,divine,2022.2.5,59.923836795525055,
green,green,g,1,,,,,,,0,7,7,6,,,,,,,,,,,,,,,,,,,,,,,,,,,,,,,,397.2133224999998,397.2133224999998,g,1,0.5371709000319242,,,,,,,,,,,,,,,,,,,,,,,,,,,,,01,2023-03-31_13h55.17.573,divine,2022.2.5,59.923836795525055,
red,red,r,1,,,,,,,0,8,8,0,,,,,,,,,,,,,,,,,,,,,,,,,,,,,,,,398.2801467999816,398.2801467999816,r,1,0.7748914000112563,,,,,,,,,,,,,,,,,,,,,,,,,,,,,01,2023-03-31_13h55.17.573,divine,2022.2.5,59.923836795525055,
black,black,x,1,,,,,,,0,9,9,1,,,,,,,,,,,,,,,,,,,,,,,,,,,,,,,,399.58032770000864,399.58032770000864,x,1,0.42673279996961355,,,,,,,,,,,,,,,,,,,,,,,,,,,,,01,2023-03-31_13h55.17.573,divine,2022.2.5,59.923836795525055,
green,green,g,1,,,,,,,0,10,10,43,,,,,,,,,,,,,,,,,,,,,,,,,,,,,,,,400.5304764000466,400.5304764000466,g,1,0.6117446999996901,,,,,,,,,,,,,,,,,,,,,,,,,,,,,01,2023-03-31_13h55.17.573,divine,2022.2.5,59.923836795525055,
green,green,g,1,,,,,,,0,11,11,24,,,,,,,,,,,,,,,,,,,,,,,,,,,,,,,,401.66392650001217,401.66392650001217,g,1,0.4704153999919072,,,,,,,,,,,,,,,,,,,,,,,,,,,,,01,2023-03-31_13h55.17.573,divine,2022.2.5,59.923836795525055,
blue,blue,b,1,,,,,,,0,12,12,36,,,,,,,,,,,,,,,,,,,,,,,,,,,,,,,,402.664187700022,402.664187700022,b,1,0.5422542999731377,,,,,,,,,,,,,,,,,,,,,,,,,,,,,01,2023-03-31_13h55.17.573,divine,2022.2.5,59.923836795525055,
blue,blue,b,1,,,,,,,0,13,13,23,,,,,,,,,,,,,,,,,,,,,,,,,,,,,,,,403.7310384999728,403.7310384999728,b,1,0.5476523000979796,,,,,,,,,,,,,,,,,,,,,,,,,,,,,01,2023-03-31_13h55.17.573,divine,2022.2.5,59.923836795525055,
blue,blue,b,1,,,,,,,0,14,14,32,,,,,,,,,,,,,,,,,,,,,,,,,,,,,,,,404.7977893999778,404.7977893999778,b,1,0.520896700094454,,,,,,,,,,,,,,,,,,,,,,,,,,,,,01,2023-03-31_13h55.17.573,divine,2022.2.5,59.923836795525055,
red,red,r,1,,,,,,,0,15,15,33,,,,,,,,,,,,,,,,,,,,,,,,,,,,,,,,405.84800180001184,405.84800180001184,r,1,0.462673099944368,,,,,,,,,,,,,,,,,,,,,,,,,,,,,01,2023-03-31_13h55.17.573,divine,2022.2.5,59.923836795525055,
red,red,r,1,,,,,,,0,16,16,12,,,,,,,,,,,,,,,,,,,,,,,,,,,,,,,,406.83186969999224,406.83186969999224,r,1,0.462503100046888,,,,,,,,,,,,,,,,,,,,,,,,,,,,,01,2023-03-31_13h55.17.573,divine,2022.2.5,59.923836795525055,
black,black,x,1,,,,,,,0,17,17,38,,,,,,,,,,,,,,,,,,,,,,,,,,,,,,,,407.8149725999683,407.8149725999683,x,1,0.4871889000060037,,,,,,,,,,,,,,,,,,,,,,,,,,,,,01,2023-03-31_13h55.17.573,divine,2022.2.5,59.923836795525055,
black,black,x,1,,,,,,,0,18,18,42,,,,,,,,,,,,,,,,,,,,,,,,,,,,,,,,408.83177309995517,408.83177309995517,x,1,0.5906709999544546,,,,,,,,,,,,,,,,,,,,,,,,,,,,,01,2023-03-31_13h55.17.573,divine,2022.2.5,59.923836795525055,
black,black,x,1,,,,,,,0,19,19,13,,,,,,,,,,,,,,,,,,,,,,,,,,,,,,,,409.94857639994007,409.94857639994007,x,1,0.5141973999561742,,,,,,,,,,,,,,,,,,,,,,,,,,,,,01,2023-03-31_13h55.17.573,divine,2022.2.5,59.923836795525055,
black,black,x,1,,,,,,,0,20,20,5,,,,,,,,,,,,,,,,,,,,,,,,,,,,,,,,410.9822262999369,410.9822262999369,x,1,0.5441454999381676,,,,,,,,,,,,,,,,,,,,,,,,,,,,,01,2023-03-31_13h55.17.573,divine,2022.2.5,59.923836795525055,
blue,blue,b,1,,,,,,,0,21,21,44,,,,,,,,,,,,,,,,,,,,,,,,,,,,,,,,412.04897879995406,412.04897879995406,b,1,1.2857683999463916,,,,,,,,,,,,,,,,,,,,,,,,,,,,,01,2023-03-31_13h55.17.573,divine,2022.2.5,59.923836795525055,
black,black,x,1,,,,,,,0,22,22,21,,,,,,,,,,,,,,,,,,,,,,,,,,,,,,,,413.8660198999569,413.8660198999569,x,1,0.6452054000692442,,,,,,,,,,,,,,,,,,,,,,,,,,,,,01,2023-03-31_13h55.17.573,divine,2022.2.5,59.923836795525055,
blue,blue,b,1,,,,,,,0,23,23,46,,,,,,,,,,,,,,,,,,,,,,,,,,,,,,,,415.0328465999337,415.0328465999337,b,1,0.5100215999409556,,,,,,,,,,,,,,,,,,,,,,,,,,,,,01,2023-03-31_13h55.17.573,divine,2022.2.5,59.923836795525055,
green,green,g,1,,,,,,,0,24,24,35,,,,,,,,,,,,,,,,,,,,,,,,,,,,,,,,416.06629099999554,416.06629099999554,g,1,0.5479297999991104,,,,,,,,,,,,,,,,,,,,,,,,,,,,,01,2023-03-31_13h55.17.573,divine,2022.2.5,59.923836795525055,
blue,blue,b,1,,,,,,,0,25,25,19,,,,,,,,,,,,,,,,,,,,,,,,,,,,,,,,417.1332159000449,417.1332159000449,b,1,1.0174900999991223,,,,,,,,,,,,,,,,,,,,,,,,,,,,,01,2023-03-31_13h55.17.573,divine,2022.2.5,59.923836795525055,
green,green,g,1,,,,,,,0,26,26,28,,,,,,,,,,,,,,,,,,,,,,,,,,,,,,,,418.6833248999901,418.6833248999901,g,1,0.5152247999794781,,,,,,,,,,,,,,,,,,,,,,,,,,,,,01,2023-03-31_13h55.17.573,divine,2022.2.5,59.923836795525055,
black,black,x,1,,,,,,,0,27,27,17,,,,,,,,,,,,,,,,,,,,,,,,,,,,,,,,419.71690050000325,419.71690050000325,x,1,0.5621489000041038,,,,,,,,,,,,,,,,,,,,,,,,,,,,,01,2023-03-31_13h55.17.573,divine,2022.2.5,59.923836795525055,
red,red,r,1,,,,,,,0,28,28,47,,,,,,,,,,,,,,,,,,,,,,,,,,,,,,,,420.8003721999703,420.8003721999703,r,1,0.4382309000939131,,,,,,,,,,,,,,,,,,,,,,,,,,,,,01,2023-03-31_13h55.17.573,divine,2022.2.5,59.923836795525055,
green,green,g,1,,,,,,,0,29,29,31,,,,,,,,,,,,,,,,,,,,,,,,,,,,,,,,421.7672696999507,421.7672696999507,g,1,0.5512618999928236,,,,,,,,,,,,,,,,,,,,,,,,,,,,,01,2023-03-31_13h55.17.573,divine,2022.2.5,59.923836795525055,
blue,blue,b,1,,,,,,,0,30,30,25,,,,,,,,,,,,,,,,,,,,,,,,,,,,,,,,422.8506974000484,422.8506974000484,b,1,0.6674639999400824,,,,,,,,,,,,,,,,,,,,,,,,,,,,,01,2023-03-31_13h55.17.573,divine,2022.2.5,59.923836795525055,
blue,blue,b,1,,,,,,,0,31,31,7,,,,,,,,,,,,,,,,,,,,,,,,,,,,,,,,424.05098209995776,424.05098209995776,b,1,0.47712729999329895,,,,,,,,,,,,,,,,,,,,,,,,,,,,,01,2023-03-31_13h55.17.573,divine,2022.2.5,59.923836795525055,
red,red,r,1,,,,,,,0,32,32,29,,,,,,,,,,,,,,,,,,,,,,,,,,,,,,,,425.051113500027,425.051113500027,r,1,0.5712823999347165,,,,,,,,,,,,,,,,,,,,,,,,,,,,,01,2023-03-31_13h55.17.573,divine,2022.2.5,59.923836795525055,
green,green,g,1,,,,,,,0,33,33,14,,,,,,,,,,,,,,,,,,,,,,,,,,,,,,,,426.1511848999653,426.1511848999653,g,1,0.5191282000159845,,,,,,,,,,,,,,,,,,,,,,,,,,,,,01,2023-03-31_13h55.17.573,divine,2022.2.5,59.923836795525055,
black,black,x,1,,,,,,,0,34,34,9,,,,,,,,,,,,,,,,,,,,,,,,,,,,,,,,427.2014206999447,427.2014206999447,x,1,0.34904080000706017,,,,,,,,,,,,,,,,,,,,,,,,,,,,,01,2023-03-31_13h55.17.573,divine,2022.2.5,59.923836795525055,
green,green,g,1,,,,,,,0,35,35,2,,,,,,,,,,,,,,,,,,,,,,,,,,,,,,,,428.068233900005,428.068233900005,g,1,0.53849279996939,,,,,,,,,,,,,,,,,,,,,,,,,,,,,01,2023-03-31_13h55.17.573,divine,2022.2.5,59.923836795525055,
red,red,r,1,,,,,,,0,36,36,41,,,,,,,,,,,,,,,,,,,,,,,,,,,,,,,,429.13505469996016,429.13505469996016,r,1,0.37593940005172044,,,,,,,,,,,,,,,,,,,,,,,,,,,,,01,2023-03-31_13h55.17.573,divine,2022.2.5,59.923836795525055,
black,black,x,1,,,,,,,0,37,37,48,,,,,,,,,,,,,,,,,,,,,,,,,,,,,,,,430.0355297999922,430.0355297999922,x,1,0.4512841000687331,,,,,,,,,,,,,,,,,,,,,,,,,,,,,01,2023-03-31_13h55.17.573,divine,2022.2.5,59.923836795525055,
black,black,x,1,,,,,,,0,38,38,27,,,,,,,,,,,,,,,,,,,,,,,,,,,,,,,,431.0187273999909,431.0187273999909,x,1,0.47614300006534904,,,,,,,,,,,,,,,,,,,,,,,,,,,,,01,2023-03-31_13h55.17.573,divine,2022.2.5,59.923836795525055,
red,red,r,1,,,,,,,0,39,39,8,,,,,,,,,,,,,,,,,,,,,,,,,,,,,,,,432.0188837000169,432.0188837000169,r,1,0.4916272000409663,,,,,,,,,,,,,,,,,,,,,,,,,,,,,01,2023-03-31_13h55.17.573,divine,2022.2.5,59.923836795525055,
green,green,g,1,,,,,,,0,40,40,39,,,,,,,,,,,,,,,,,,,,,,,,,,,,,,,,433.0356909999391,433.0356909999391,g,1,0.5227221999084577,,,,,,,,,,,,,,,,,,,,,,,,,,,,,01,2023-03-31_13h55.17.573,divine,2022.2.5,59.923836795525055,
green,green,g,1,,,,,,,0,41,41,49,,,,,,,,,,,,,,,,,,,,,,,,,,,,,,,,434.0860675999429,434.0860675999429,g,1,0.48099059995729476,,,,,,,,,,,,,,,,,,,,,,,,,,,,,01,2023-03-31_13h55.17.573,divine,2022.2.5,59.923836795525055,
black,black,x,1,,,,,,,0,42,42,34,,,,,,,,,,,,,,,,,,,,,,,,,,,,,,,,435.0859757999424,435.0859757999424,x,1,0.5604316999670118,,,,,,,,,,,,,,,,,,,,,,,,,,,,,01,2023-03-31_13h55.17.573,divine,2022.2.5,59.923836795525055,
blue,blue,b,1,,,,,,,0,43,43,3,,,,,,,,,,,,,,,,,,,,,,,,,,,,,,,,436.16993239999283,436.16993239999283,b,1,0.429021600051783,,,,,,,,,,,,,,,,,,,,,,,,,,,,,01,2023-03-31_13h55.17.573,divine,2022.2.5,59.923836795525055,
blue,blue,b,1,,,,,,,0,44,44,15,,,,,,,,,,,,,,,,,,,,,,,,,,,,,,,,437.10303660004865,437.10303660004865,b,1,0.647379899979569,,,,,,,,,,,,,,,,,,,,,,,,,,,,,01,2023-03-31_13h55.17.573,divine,2022.2.5,59.923836795525055,
red,red,r,1,,,,,,,0,45,45,20,,,,,,,,,,,,,,,,,,,,,,,,,,,,,,,,438.2698413999751,438.2698413999751,r,1,0.6649162000976503,,,,,,,,,,,,,,,,,,,,,,,,,,,,,01,2023-03-31_13h55.17.573,divine,2022.2.5,59.923836795525055,
green,green,g,1,,,,,,,0,46,46,22,,,,,,,,,,,,,,,,,,,,,,,,,,,,,,,,439.4533833999885,439.4533833999885,g,1,0.4650906000752002,,,,,,,,,,,,,,,,,,,,,,,,,,,,,01,2023-03-31_13h55.17.573,divine,2022.2.5,59.923836795525055,
red,red,r,1,,,,,,,0,47,47,16,,,,,,,,,,,,,,,,,,,,,,,,,,,,,,,,440.43693119997624,440.43693119997624,r,1,0.498913099989295,,,,,,,,,,,,,,,,,,,,,,,,,,,,,01,2023-03-31_13h55.17.573,divine,2022.2.5,59.923836795525055,
red,red,r,1,,,,,,,0,48,48,26,,,,,,,,,,,,,,,,,,,,,,,,,,,,,,,,441.4536960000405,441.4536960000405,r,1,0.49671069998294115,,,,,,,,,,,,,,,,,,,,,,,,,,,,,01,2023-03-31_13h55.17.573,divine,2022.2.5,59.923836795525055,
green,green,g,1,,,,,,,0,49,49,10,,,,,,,,,,,,,,,,,,,,,,,,,,,,,,,,442.47060180001426,442.47060180001426,g,1,0.5438088000519201,,,,,,,,,,,,,,,,,,,,,,,,,,,,,01,2023-03-31_13h55.17.573,divine,2022.2.5,59.923836795525055,
red,blue,b,0,,,,,,,,,,,0,0,0,35,,,,,,,,,,,,,,,,,,,,,,,,,,,,446.5379155999981,446.5379155999981,b,1,0.9006157000549138,,,443.0374890000094,443.0374890000094,,,,,,,,,,,,,,,,,,,,,,,,,01,2023-03-31_13h55.17.573,divine,2022.2.5,59.923836795525055,
green,black,x,0,,,,,,,,,,,0,1,1,4,,,,,,,,,,,,,,,,,,,,,,,,,,,,447.971388499951,447.971388499951,x,1,0.6191822999389842,,,,,,,,,,,,,,,,,,,,,,,,,,,,,01,2023-03-31_13h55.17.573,divine,2022.2.5,59.923836795525055,
blue,green,g,0,,,,,,,,,,,0,2,2,21,,,,,,,,,,,,,,,,,,,,,,,,,,,,449.12207030004356,449.12207030004356,g,1,0.5965838000411168,,,,,,,,,,,,,,,,,,,,,,,,,,,,,01,2023-03-31_13h55.17.573,divine,2022.2.5,59.923836795525055,
red,green,g,0,,,,,,,,,,,0,3,3,11,,,,,,,,,,,,,,,,,,,,,,,,,,,,450.2384471000405,450.2384471000405,g,1,0.7757835999364033,,,,,,,,,,,,,,,,,,,,,,,,,,,,,01,2023-03-31_13h55.17.573,divine,2022.2.5,59.923836795525055,
red,black,x,0,,,,,,,,,,,0,4,4,7,,,,,,,,,,,,,,,,,,,,,,,,,,,,451.53874390001874,451.53874390001874,x,1,0.6844761000247672,,,,,,,,,,,,,,,,,,,,,,,,,,,,,01,2023-03-31_13h55.17.573,divine,2022.2.5,59.923836795525055,
blue,green,g,0,,,,,,,,,,,0,5,5,41,,,,,,,,,,,,,,,,,,,,,,,,,,,,452.75554100004956,452.75554100004956,g,1,0.8746779999928549,,,,,,,,,,,,,,,,,,,,,,,,,,,,,01,2023-03-31_13h55.17.573,divine,2022.2.5,59.923836795525055,
blue,black,x,0,,,,,,,,,,,0,6,6,13,,,,,,,,,,,,,,,,,,,,,,,,,,,,454.15575279993936,454.15575279993936,x,1,0.6846389999845996,,,,,,,,,,,,,,,,,,,,,,,,,,,,,01,2023-03-31_13h55.17.573,divine,2022.2.5,59.923836795525055,
blue,red,r,0,,,,,,,,,,,0,7,7,5,,,,,,,,,,,,,,,,,,,,,,,,,,,,455.37260150001384,455.37260150001384,r,1,0.5223226000089198,,,,,,,,,,,,,,,,,,,,,,,,,,,,,01,2023-03-31_13h55.17.573,divine,2022.2.5,59.923836795525055,
green,blue,b,0,,,,,,,,,,,0,8,8,12,,,,,,,,,,,,,,,,,,,,,,,,,,,,456.42281350004487,456.42281350004487,b,1,0.7923581999493763,,,,,,,,,,,,,,,,,,,,,,,,,,,,,01,2023-03-31_13h55.17.573,divine,2022.2.5,59.923836795525055,
blue,black,x,0,,,,,,,,,,,0,9,9,1,,,,,,,,,,,,,,,,,,,,,,,,,,,,457.73973589995876,457.73973589995876,x,1,0.739756099996157,,,,,,,,,,,,,,,,,,,,,,,,,,,,,01,2023-03-31_13h55.17.573,divine,2022.2.5,59.923836795525055,
green,red,r,0,,,,,,,,,,,0,10,10,25,,,,,,,,,,,,,,,,,,,,,,,,,,,,459.0066326999804,459.0066326999804,r,1,0.46451590000651777,,,,,,,,,,,,,,,,,,,,,,,,,,,,,01,2023-03-31_13h55.17.573,divine,2022.2.5,59.923836795525055,
black,green,g,0,,,,,,,,,,,0,11,11,43,,,,,,,,,,,,,,,,,,,,,,,,,,,,459.9900423999643,459.9900423999643,g,1,0.5126688000746071,,,,,,,,,,,,,,,,,,,,,,,,,,,,,01,2023-03-31_13h55.17.573,divine,2022.2.5,59.923836795525055,
blue,green,g,0,,,,,,,,,,,0,12,12,26,,,,,,,,,,,,,,,,,,,,,,,,,,,,461.0235851999605,461.0235851999605,g,1,0.8066986000631005,,,,,,,,,,,,,,,,,,,,,,,,,,,,,01,2023-03-31_13h55.17.573,divine,2022.2.5,59.923836795525055,
green,blue,b,0,,,,,,,,,,,0,13,13,32,,,,,,,,,,,,,,,,,,,,,,,,,,,,462.35704240005,462.35704240005,b,1,0.7854526999872178,,,,,,,,,,,,,,,,,,,,,,,,,,,,,01,2023-03-31_13h55.17.573,divine,2022.2.5,59.923836795525055,
blue,red,r,0,,,,,,,,,,,0,14,14,17,,,,,,,,,,,,,,,,,,,,,,,,,,,,463.67392009997275,463.67392009997275,r,1,0.5732641000067815,,,,,,,,,,,,,,,,,,,,,,,,,,,,,01,2023-03-31_13h55.17.573,divine,2022.2.5,59.923836795525055,
green,red,r,0,,,,,,,,,,,0,15,15,40,,,,,,,,,,,,,,,,,,,,,,,,,,,,464.77456489996985,464.77456489996985,r,1,0.5443656999850646,,,,,,,,,,,,,,,,,,,,,,,,,,,,,01,2023-03-31_13h55.17.573,divine,2022.2.5,59.923836795525055,
black,blue,b,0,,,,,,,,,,,0,16,16,27,,,,,,,,,,,,,,,,,,,,,,,,,,,,465.8409542000154,465.8409542000154,b,1,0.6464961000019684,,,,,,,,,,,,,,,,,,,,,,,,,,,,,01,2023-03-31_13h55.17.573,divine,2022.2.5,59.923836795525055,
black,green,g,0,,,,,,,,,,,0,17,17,38,,,,,,,,,,,,,,,,,,,,,,,,,,,,467.0077596999472,467.0077596999472,g,1,0.7511255999561399,,,,,,,,,,,,,,,,,,,,,,,,,,,,,01,2023-03-31_13h55.17.573,divine,2022.2.5,59.923836795525055,
green,black,x,0,,,,,,,,,,,0,18,18,36,,,,,,,,,,,,,,,,,,,,,,,,,,,,468.2913653999567,468.2913653999567,x,1,0.7472406999440864,,,,,,,,,,,,,,,,,,,,,,,,,,,,,01,2023-03-31_13h55.17.573,divine,2022.2.5,59.923836795525055,
red,black,x,0,,,,,,,,,,,0,19,19,19,,,,,,,,,,,,,,,,,,,,,,,,,,,,469.5415755000431,469.5415755000431,x,1,0.4807831000071019,,,,,,,,,,,,,,,,,,,,,,,,,,,,,01,2023-03-31_13h55.17.573,divine,2022.2.5,59.923836795525055,
blue,red,r,0,,,,,,,,,,,0,20,20,37,,,,,,,,,,,,,,,,,,,,,,,,,,,,470.54171949997544,470.54171949997544,r,1,0.5851287000114098,,,,,,,,,,,,,,,,,,,,,,,,,,,,,01,2023-03-31_13h55.17.573,divine,2022.2.5,59.923836795525055,
green,red,r,0,,,,,,,,,,,0,21,21,49,,,,,,,,,,,,,,,,,,,,,,,,,,,,471.6585777000291,471.6585777000291,r,1,0.5243324999464676,,,,,,,,,,,,,,,,,,,,,,,,,,,,,01,2023-03-31_13h55.17.573,divine,2022.2.5,59.923836795525055,
green,black,x,0,,,,,,,,,,,0,22,22,16,,,,,,,,,,,,,,,,,,,,,,,,,,,,472.7088254999835,472.7088254999835,x,1,0.6507706000702456,,,,,,,,,,,,,,,,,,,,,,,,,,,,,01,2023-03-31_13h55.17.573,divine,2022.2.5,59.923836795525055,
black,blue,b,0,,,,,,,,,,,0,23,23,47,,,,,,,,,,,,,,,,,,,,,,,,,,,,473.89228899998125,473.89228899998125,b,1,0.48247669998090714,,,,,,,,,,,,,,,,,,,,,,,,,,,,,01,2023-03-31_13h55.17.573,divine,2022.2.5,59.923836795525055,
green,red,r,0,,,,,,,,,,,0,24,24,48,,,,,,,,,,,,,,,,,,,,,,,,,,,,474.8925501999911,474.8925501999911,r,1,0.4506764999823645,,,,,,,,,,,,,,,,,,,,,,,,,,,,,01,2023-03-31_13h55.17.573,divine,2022.2.5,59.923836795525055,
black,green,g,0,,,,,,,,,,,0,25,25,6,,,,,,,,,,,,,,,,,,,,,,,,,,,,475.8759193000151,475.8759193000151,g,1,0.442984199966304,,,,,,,,,,,,,,,,,,,,,,,,,,,,,01,2023-03-31_13h55.17.573,divine,2022.2.5,59.923836795525055,
blue,green,g,0,,,,,,,,,,,0,26,26,46,,,,,,,,,,,,,,,,,,,,,,,,,,,,476.8428023000015,476.8428023000015,g,1,0.5316837000427768,,,,,,,,,,,,,,,,,,,,,,,,,,,,,01,2023-03-31_13h55.17.573,divine,2022.2.5,59.923836795525055,
blue,green,g,0,,,,,,,,,,,0,27,27,9,,,,,,,,,,,,,,,,,,,,,,,,,,,,477.8930159000447,477.8930159000447,g,1,0.41796830005478114,,,,,,,,,,,,,,,,,,,,,,,,,,,,,01,2023-03-31_13h55.17.573,divine,2022.2.5,59.923836795525055,
black,blue,b,0,,,,,,,,,,,0,28,28,30,,,,,,,,,,,,,,,,,,,,,,,,,,,,478.8430678000441,478.8430678000441,b,1,0.5239117000019178,,,,,,,,,,,,,,,,,,,,,,,,,,,,,01,2023-03-31_13h55.17.573,divine,2022.2.5,59.923836795525055,
black,blue,b,0,,,,,,,,,,,0,29,29,22,,,,,,,,,,,,,,,,,,,,,,,,,,,,479.893337000045,479.893337000045,b,1,0.3289943999843672,,,,,,,,,,,,,,,,,,,,,,,,,,,,,01,2023-03-31_13h55.17.573,divine,2022.2.5,59.923836795525055,
red,black,x,0,,,,,,,,,,,0,30,30,44,,,,,,,,,,,,,,,,,,,,,,,,,,,,480.74337959999684,480.74337959999684,x,1,0.5517157000722364,,,,,,,,,,,,,,,,,,,,,,,,,,,,,01,2023-03-31_13h55.17.573,divine,2022.2.5,59.923836795525055,
green,red,r,0,,,,,,,,,,,0,31,31,8,,,,,,,,,,,,,,,,,,,,,,,,,,,,481.82698490004987,481.82698490004987,r,1,0.507978199981153,,,,,,,,,,,,,,,,,,,,,,,,,,,,,01,2023-03-31_13h55.17.573,divine,2022.2.5,59.923836795525055,
black,red,r,0,,,,,,,,,,,0,32,32,34,,,,,,,,,,,,,,,,,,,,,,,,,,,,482.8604378999444,482.8604378999444,r,1,0.5464435999747366,,,,,,,,,,,,,,,,,,,,,,,,,,,,,01,2023-03-31_13h55.17.573,divine,2022.2.5,59.923836795525055,
green,red,r,0,,,,,,,,,,,0,33,33,28,,,,,,,,,,,,,,,,,,,,,,,,,,,,483.92715929995757,483.92715929995757,r,1,0.4473971000406891,,,,,,,,,,,,,,,,,,,,,,,,,,,,,01,2023-03-31_13h55.17.573,divine,2022.2.5,59.923836795525055,
blue,green,g,0,,,,,,,,,,,0,34,34,29,,,,,,,,,,,,,,,,,,,,,,,,,,,,484.8941394999856,484.8941394999856,g,1,0.5925901000155136,,,,,,,,,,,,,,,,,,,,,,,,,,,,,01,2023-03-31_13h55.17.573,divine,2022.2.5,59.923836795525055,
green,red,r,0,,,,,,,,,,,0,35,35,45,,,,,,,,,,,,,,,,,,,,,,,,,,,,486.01091089996044,486.01091089996044,r,1,0.667934300028719,,,,,,,,,,,,,,,,,,,,,,,,,,,,,01,2023-03-31_13h55.17.573,divine,2022.2.5,59.923836795525055,
green,red,r,0,,,,,,,,,,,0,36,36,20,,,,,,,,,,,,,,,,,,,,,,,,,,,,487.2111196999904,487.2111196999904,r,1,0.4758705999702215,,,,,,,,,,,,,,,,,,,,,,,,,,,,,01,2023-03-31_13h55.17.573,divine,2022.2.5,59.923836795525055,
black,red,r,0,,,,,,,,,,,0,37,37,14,,,,,,,,,,,,,,,,,,,,,,,,,,,,488.211222599959,488.211222599959,r,1,0.531121899955906,,,,,,,,,,,,,,,,,,,,,,,,,,,,,01,2023-03-31_13h55.17.573,divine,2022.2.5,59.923836795525055,
red,blue,b,0,,,,,,,,,,,0,38,38,3,,,,,,,,,,,,,,,,,,,,,,,,,,,,489.2614711000351,489.2614711000351,b,1,0.513259100029245,,,,,,,,,,,,,,,,,,,,,,,,,,,,,01,2023-03-31_13h55.17.573,divine,2022.2.5,59.923836795525055,
red,black,x,0,,,,,,,,,,,0,39,39,24,,,,,,,,,,,,,,,,,,,,,,,,,,,,490.29506020003464,490.29506020003464,x,1,0.46373340010177344,,,,,,,,,,,,,,,,,,,,,,,,,,,,,01,2023-03-31_13h55.17.573,divine,2022.2.5,59.923836795525055,
black,blue,b,0,,,,,,,,,,,0,40,40,42,,,,,,,,,,,,,,,,,,,,,,,,,,,,491.2783532999456,491.2783532999456,b,1,0.504412499954924,,,,,,,,,,,,,,,,,,,,,,,,,,,,,01,2023-03-31_13h55.17.573,divine,2022.2.5,59.923836795525055,
red,black,x,0,,,,,,,,,,,0,41,41,39,,,,,,,,,,,,,,,,,,,,,,,,,,,,492.31186679995153,492.31186679995153,x,1,0.42249859997536987,,,,,,,,,,,,,,,,,,,,,,,,,,,,,01,2023-03-31_13h55.17.573,divine,2022.2.5,59.923836795525055,
red,blue,b,0,,,,,,,,,,,0,42,42,15,,,,,,,,,,,,,,,,,,,,,,,,,,,,493.2621676999843,493.2621676999843,b,1,0.43402329995296896,,,,,,,,,,,,,,,,,,,,,,,,,,,,,01,2023-03-31_13h55.17.573,divine,2022.2.5,59.923836795525055,
red,green,g,0,,,,,,,,,,,0,43,43,31,,,,,,,,,,,,,,,,,,,,,,,,,,,,494.22927430004347,494.22927430004347,r,0,0.5936019000364468,,,,,,,,,,,,,,,,,,,,,,,,,,,,,01,2023-03-31_13h55.17.573,divine,2022.2.5,59.923836795525055,
black,red,r,0,,,,,,,,,,,0,44,44,2,,,,,,,,,,,,,,,,,,,,,,,,,,,,495.34569600003306,495.34569600003306,r,1,1.6204672999447212,,,,,,,,,,,,,,,,,,,,,,,,,,,,,01,2023-03-31_13h55.17.573,divine,2022.2.5,59.923836795525055,
black,green,g,0,,,,,,,,,,,0,45,45,18,,,,,,,,,,,,,,,,,,,,,,,,,,,,497.49607140000444,497.49607140000444,g,1,0.7428911000024527,,,,,,,,,,,,,,,,,,,,,,,,,,,,,01,2023-03-31_13h55.17.573,divine,2022.2.5,59.923836795525055,
green,blue,b,0,,,,,,,,,,,0,46,46,0,,,,,,,,,,,,,,,,,,,,,,,,,,,,498.76287179999053,498.76287179999053,b,1,0.5476373999845237,,,,,,,,,,,,,,,,,,,,,,,,,,,,,01,2023-03-31_13h55.17.573,divine,2022.2.5,59.923836795525055,
black,blue,b,0,,,,,,,,,,,0,47,47,10,,,,,,,,,,,,,,,,,,,,,,,,,,,,499.8297370999353,499.8297370999353,b,1,0.3936261999187991,,,,,,,,,,,,,,,,,,,,,,,,,,,,,01,2023-03-31_13h55.17.573,divine,2022.2.5,59.923836795525055,
black,green,g,0,,,,,,,,,,,0,48,48,23,,,,,,,,,,,,,,,,,,,,,,,,,,,,500.7466038999846,500.7466038999846,g,1,0.6117377000628039,,,,,,,,,,,,,,,,,,,,,,,,,,,,,01,2023-03-31_13h55.17.573,divine,2022.2.5,59.923836795525055,
blue,black,x,0,,,,,,,,,,,0,49,49,33,,,,,,,,,,,,,,,,,,,,,,,,,,,,501.88013770000543,501.88013770000543,x,1,0.5744950000662357,,,,,,,,,,,,,,,,,,,,,,,,,,,,,01,2023-03-31_13h55.17.573,divine,2022.2.5,59.923836795525055,
,,,,,,,,,,,,,,,,,,,,,,,,,,,,,,,,,,,,,,,,,,,,,,,,,,,,,,502.48027299996465,502.48027299996465,space,1.7022091000108048,,,,,,,,,,,,,,,,,,,,,01,2023-03-31_13h55.17.573,divine,2022.2.5,59.923836795525055,
red,black,r,0,,,,,,,,,,,,,,,0,0,0,28,,,,,,,,,,,,,,,,,,,,,,852.2031754000345,852.2031754000345,855.3369515000377,855.3369515000377,r,1,0.7977540999418125,,,,,,,,,504.2502729999833,552.1883005000418,,,,,,,,,,,,,,,,,,,01,2023-03-31_13h55.17.573,divine,2022.2.5,59.923836795525055,
blue,black,b,0,,,,,,,,,,,,,,,0,1,1,29,,,,,,,,,,,,,,,,,,,,,,,,856.6538776999805,856.6538776999805,b,1,0.6582596000516787,,,,,,,,,,,,,,,,,,,,,,,,,,,,,01,2023-03-31_13h55.17.573,divine,2022.2.5,59.923836795525055,
green,black,g,0,,,,,,,,,,,,,,,0,2,2,33,,,,,,,,,,,,,,,,,,,,,,,,857.8377210999606,857.8377210999606,g,1,0.6006848000688478,,,,,,,,,,,,,,,,,,,,,,,,,,,,,01,2023-03-31_13h55.17.573,divine,2022.2.5,59.923836795525055,
green,black,g,0,,,,,,,,,,,,,,,0,3,3,39,,,,,,,,,,,,,,,,,,,,,,,,858.9708722999785,858.9708722999785,g,1,0.5556578000541776,,,,,,,,,,,,,,,,,,,,,,,,,,,,,01,2023-03-31_13h55.17.573,divine,2022.2.5,59.923836795525055,
green,black,g,0,,,,,,,,,,,,,,,0,4,4,9,,,,,,,,,,,,,,,,,,,,,,,,860.05445159995,860.05445159995,g,1,0.4566753999097273,,,,,,,,,,,,,,,,,,,,,,,,,,,,,01,2023-03-31_13h55.17.573,divine,2022.2.5,59.923836795525055,
blue,black,b,0,,,,,,,,,,,,,,,0,5,5,3,,,,,,,,,,,,,,,,,,,,,,,,861.0379749999847,861.0379749999847,b,1,0.5846731000347063,,,,,,,,,,,,,,,,,,,,,,,,,,,,,01,2023-03-31_13h55.17.573,divine,2022.2.5,59.923836795525055,
green,black,g,0,,,,,,,,,,,,,,,0,6,6,49,,,,,,,,,,,,,,,,,,,,,,,,862.154796399991,862.154796399991,g,1,0.44355790002737194,,,,,,,,,,,,,,,,,,,,,,,,,,,,,01,2023-03-31_13h55.17.573,divine,2022.2.5,59.923836795525055,
black,black,x,1,,,,,,,,,,,,,,,0,7,7,0,,,,,,,,,,,,,,,,,,,,,,,,863.121667600004,863.121667600004,x,1,0.5341776000568643,,,,,,,,,,,,,,,,,,,,,,,,,,,,,01,2023-03-31_13h55.17.573,divine,2022.2.5,59.923836795525055,
red,black,r,0,,,,,,,,,,,,,,,0,8,8,14,,,,,,,,,,,,,,,,,,,,,,,,864.1884389000479,864.1884389000479,r,1,0.49060819996520877,,,,,,,,,,,,,,,,,,,,,,,,,,,,,01,2023-03-31_13h55.17.573,divine,2022.2.5,59.923836795525055,
black,black,x,1,,,,,,,,,,,,,,,0,9,9,38,,,,,,,,,,,,,,,,,,,,,,,,865.2052191999974,865.2052191999974,x,1,0.6749151999829337,,,,,,,,,,,,,,,,,,,,,,,,,,,,,01,2023-03-31_13h55.17.573,divine,2022.2.5,59.923836795525055,
red,black,r,0,,,,,,,,,,,,,,,0,10,10,34,,,,,,,,,,,,,,,,,,,,,,,,866.4054685999872,866.4054685999872,r,1,0.425265199970454,,,,,,,,,,,,,,,,,,,,,,,,,,,,,01,2023-03-31_13h55.17.573,divine,2022.2.5,59.923836795525055,
green,black,g,0,,,,,,,,,,,,,,,0,11,11,13,,,,,,,,,,,,,,,,,,,,,,,,867.3555897000479,867.3555897000479,g,1,0.5479904999956489,,,,,,,,,,,,,,,,,,,,,,,,,,,,,01,2023-03-31_13h55.17.573,divine,2022.2.5,59.923836795525055,
green,black,g,0,,,,,,,,,,,,,,,0,12,12,5,,,,,,,,,,,,,,,,,,,,,,,,868.422509499942,868.422509499942,g,1,0.43399099993985146,,,,,,,,,,,,,,,,,,,,,,,,,,,,,01,2023-03-31_13h55.17.573,divine,2022.2.5,59.923836795525055,
red,black,r,0,,,,,,,,,,,,,,,0,13,13,30,,,,,,,,,,,,,,,,,,,,,,,,869.3893423000118,869.3893423000118,r,1,0.5851622000336647,,,,,,,,,,,,,,,,,,,,,,,,,,,,,01,2023-03-31_13h55.17.573,divine,2022.2.5,59.923836795525055,
blue,black,b,0,,,,,,,,,,,,,,,0,14,14,19,,,,,,,,,,,,,,,,,,,,,,,,870.5063120999839,870.5063120999839,b,1,0.6779483000282198,,,,,,,,,,,,,,,,,,,,,,,,,,,,,01,2023-03-31_13h55.17.573,divine,2022.2.5,59.923836795525055,
red,black,r,0,,,,,,,,,,,,,,,0,15,15,6,,,,,,,,,,,,,,,,,,,,,,,,871.7063421000494,871.7063421000494,x,0,0.4843710999703035,,,,,,,,,,,,,,,,,,,,,,,,,,,,,01,2023-03-31_13h55.17.573,divine,2022.2.5,59.923836795525055,
green,black,g,0,,,,,,,,,,,,,,,0,16,16,21,,,,,,,,,,,,,,,,,,,,,,,,872.7235054000048,872.7235054000048,g,1,0.523718100041151,,,,,,,,,,,,,,,,,,,,,,,,,,,,,01,2023-03-31_13h55.17.573,divine,2022.2.5,59.923836795525055,
black,black,x,1,,,,,,,,,,,,,,,0,17,17,20,,,,,,,,,,,,,,,,,,,,,,,,873.773312299978,873.773312299978,x,1,0.7453651999821886,,,,,,,,,,,,,,,,,,,,,,,,,,,,,01,2023-03-31_13h55.17.573,divine,2022.2.5,59.923836795525055,
red,black,r,0,,,,,,,,,,,,,,,0,18,18,2,,,,,,,,,,,,,,,,,,,,,,,,875.040153900045,875.040153900045,r,1,0.3911009000148624,,,,,,,,,,,,,,,,,,,,,,,,,,,,,01,2023-03-31_13h55.17.573,divine,2022.2.5,59.923836795525055,
blue,black,b,0,,,,,,,,,,,,,,,0,19,19,35,,,,,,,,,,,,,,,,,,,,,,,,875.9572720000288,875.9572720000288,b,1,0.5535943999420851,,,,,,,,,,,,,,,,,,,,,,,,,,,,,01,2023-03-31_13h55.17.573,divine,2022.2.5,59.923836795525055,
blue,black,b,0,,,,,,,,,,,,,,,0,20,20,15,,,,,,,,,,,,,,,,,,,,,,,,877.0405858999584,877.0405858999584,r,0,0.39120059995912015,,,,,,,,,,,,,,,,,,,,,,,,,,,,,01,2023-03-31_13h55.17.573,divine,2022.2.5,59.923836795525055,
black,black,x,1,,,,,,,,,,,,,,,0,21,21,48,,,,,,,,,,,,,,,,,,,,,,,,877.9573192000389,877.9573192000389,x,1,0.5770550000015646,,,,,,,,,,,,,,,,,,,,,,,,,,,,,01,2023-03-31_13h55.17.573,divine,2022.2.5,59.923836795525055,
blue,black,b,0,,,,,,,,,,,,,,,0,22,22,47,,,,,,,,,,,,,,,,,,,,,,,,879.0575022000121,879.0575022000121,b,1,0.925226700026542,,,,,,,,,,,,,,,,,,,,,,,,,,,,,01,2023-03-31_13h55.17.573,divine,2022.2.5,59.923836795525055,
blue,black,b,0,,,,,,,,,,,,,,,0,23,23,45,,,,,,,,,,,,,,,,,,,,,,,,880.50773079996,880.50773079996,b,1,0.6268078000284731,,,,,,,,,,,,,,,,,,,,,,,,,,,,,01,2023-03-31_13h55.17.573,divine,2022.2.5,59.923836795525055,
blue,black,b,0,,,,,,,,,,,,,,,0,24,24,11,,,,,,,,,,,,,,,,,,,,,,,,881.6579106999561,881.6579106999561,b,1,0.42035869997926056,,,,,,,,,,,,,,,,,,,,,,,,,,,,,01,2023-03-31_13h55.17.573,divine,2022.2.5,59.923836795525055,
red,black,r,0,,,,,,,,,,,,,,,0,25,25,36,,,,,,,,,,,,,,,,,,,,,,,,882.6081398000242,882.6081398000242,r,1,0.39072140003554523,,,,,,,,,,,,,,,,,,,,,,,,,,,,,01,2023-03-31_13h55.17.573,divine,2022.2.5,59.923836795525055,
black,black,x,1,,,,,,,,,,,,,,,0,26,26,8,,,,,,,,,,,,,,,,,,,,,,,,883.5249507999979,883.5249507999979,x,1,0.49774559994693846,,,,,,,,,,,,,,,,,,,,,,,,,,,,,01,2023-03-31_13h55.17.573,divine,2022.2.5,59.923836795525055,
red,black,r,0,,,,,,,,,,,,,,,0,27,27,10,,,,,,,,,,,,,,,,,,,,,,,,884.5417104000226,884.5417104000226,r,1,0.4489676000084728,,,,,,,,,,,,,,,,,,,,,,,,,,,,,01,2023-03-31_13h55.17.573,divine,2022.2.5,59.923836795525055,
red,black,r,0,,,,,,,,,,,,,,,0,28,28,44,,,,,,,,,,,,,,,,,,,,,,,,885.5085137999849,885.5085137999849,r,1,0.42658970004413277,,,,,,,,,,,,,,,,,,,,,,,,,,,,,01,2023-03-31_13h55.17.573,divine,2022.2.5,59.923836795525055,
green,black,g,0,,,,,,,,,,,,,,,0,29,29,27,,,,,,,,,,,,,,,,,,,,,,,,886.4587181999814,886.4587181999814,g,1,0.45255859999451786,,,,,,,,,,,,,,,,,,,,,,,,,,,,,01,2023-03-31_13h55.17.573,divine,2022.2.5,59.923836795525055,
black,black,x,1,,,,,,,,,,,,,,,0,30,30,12,,,,,,,,,,,,,,,,,,,,,,,,887.4425873999717,887.4425873999717,x,1,0.6118907000636682,,,,,,,,,,,,,,,,,,,,,,,,,,,,,01,2023-03-31_13h55.17.573,divine,2022.2.5,59.923836795525055,
red,black,r,0,,,,,,,,,,,,,,,0,31,31,40,,,,,,,,,,,,,,,,,,,,,,,,888.5590260999743,888.5590260999743,r,1,0.4642814000835642,,,,,,,,,,,,,,,,,,,,,,,,,,,,,01,2023-03-31_13h55.17.573,divine,2022.2.5,59.923836795525055,
blue,black,b,0,,,,,,,,,,,,,,,0,32,32,7,,,,,,,,,,,,,,,,,,,,,,,,889.5429575999733,889.5429575999733,b,1,0.3753594000590965,,,,,,,,,,,,,,,,,,,,,,,,,,,,,01,2023-03-31_13h55.17.573,divine,2022.2.5,59.923836795525055,
red,black,r,0,,,,,,,,,,,,,,,0,33,33,18,,,,,,,,,,,,,,,,,,,,,,,,890.4426497999812,890.4426497999812,r,1,0.5086374999955297,,,,,,,,,,,,,,,,,,,,,,,,,,,,,01,2023-03-31_13h55.17.573,divine,2022.2.5,59.923836795525055,
black,black,x,1,,,,,,,,,,,,,,,0,34,34,16,,,,,,,,,,,,,,,,,,,,,,,,891.4761298999656,891.4761298999656,x,1,0.9070036000339314,,,,,,,,,,,,,,,,,,,,,,,,,,,,,01,2023-03-31_13h55.17.573,divine,2022.2.5,59.923836795525055,
blue,black,b,0,,,,,,,,,,,,,,,0,35,35,25,,,,,,,,,,,,,,,,,,,,,,,,892.9096872999799,892.9096872999799,b,1,0.7047651000320911,,,,,,,,,,,,,,,,,,,,,,,,,,,,,01,2023-03-31_13h55.17.573,divine,2022.2.5,59.923836795525055,
black,black,x,1,,,,,,,,,,,,,,,0,36,36,4,,,,,,,,,,,,,,,,,,,,,,,,894.1432335999561,894.1432335999561,x,1,0.8557702999096364,,,,,,,,,,,,,,,,,,,,,,,,,,,,,01,2023-03-31_13h55.17.573,divine,2022.2.5,59.923836795525055,
black,black,x,1,,,,,,,,,,,,,,,0,37,37,26,,,,,,,,,,,,,,,,,,,,,,,,895.5267789999489,895.5267789999489,x,1,0.6965515000047162,,,,,,,,,,,,,,,,,,,,,,,,,,,,,01,2023-03-31_13h55.17.573,divine,2022.2.5,59.923836795525055,
blue,black,b,0,,,,,,,,,,,,,,,0,38,38,41,,,,,,,,,,,,,,,,,,,,,,,,896.7436260000104,896.7436260000104,b,1,0.695483100018464,,,,,,,,,,,,,,,,,,,,,,,,,,,,,01,2023-03-31_13h55.17.573,divine,2022.2.5,59.923836795525055,
blue,black,b,0,,,,,,,,,,,,,,,0,39,39,23,,,,,,,,,,,,,,,,,,,,,,,,897.9606179000111,897.9606179000111,b,1,0.4068264999659732,,,,,,,,,,,,,,,,,,,,,,,,,,,,,01,2023-03-31_13h55.17.573,divine,2022.2.5,59.923836795525055,
blue,black,b,0,,,,,,,,,,,,,,,0,40,40,37,,,,,,,,,,,,,,,,,,,,,,,,898.8939699999755,898.8939699999755,b,1,0.3770224000327289,,,,,,,,,,,,,,,,,,,,,,,,,,,,,01,2023-03-31_13h55.17.573,divine,2022.2.5,59.923836795525055,
red,black,r,0,,,,,,,,,,,,,,,0,41,41,24,,,,,,,,,,,,,,,,,,,,,,,,899.7940649000229,899.7940649000229,r,1,0.47696530004031956,,,,,,,,,,,,,,,,,,,,,,,,,,,,,01,2023-03-31_13h55.17.573,divine,2022.2.5,59.923836795525055,
black,black,x,1,,,,,,,,,,,,,,,0,42,42,32,,,,,,,,,,,,,,,,,,,,,,,,900.7947158999741,900.7947158999741,x,1,0.6281675000209361,,,,,,,,,,,,,,,,,,,,,,,,,,,,,01,2023-03-31_13h55.17.573,divine,2022.2.5,59.923836795525055,
blue,black,b,0,,,,,,,,,,,,,,,0,43,43,31,,,,,,,,,,,,,,,,,,,,,,,,901.9444883000106,901.9444883000106,b,1,0.639721899991855,,,,,,,,,,,,,,,,,,,,,,,,,,,,,01,2023-03-31_13h55.17.573,divine,2022.2.5,59.923836795525055,
green,black,g,0,,,,,,,,,,,,,,,0,44,44,43,,,,,,,,,,,,,,,,,,,,,,,,903.1113763999892,903.1113763999892,g,1,0.8006772000808269,,,,,,,,,,,,,,,,,,,,,,,,,,,,,01,2023-03-31_13h55.17.573,divine,2022.2.5,59.923836795525055,
green,black,g,0,,,,,,,,,,,,,,,0,45,45,17,,,,,,,,,,,,,,,,,,,,,,,,904.444885200006,904.444885200006,g,1,0.5295160999521613,,,,,,,,,,,,,,,,,,,,,,,,,,,,,01,2023-03-31_13h55.17.573,divine,2022.2.5,59.923836795525055,
red,black,r,0,,,,,,,,,,,,,,,0,46,46,22,,,,,,,,,,,,,,,,,,,,,,,,905.4951401000144,905.4951401000144,r,1,0.49603359994944185,,,,,,,,,,,,,,,,,,,,,,,,,,,,,01,2023-03-31_13h55.17.573,divine,2022.2.5,59.923836795525055,
red,black,r,0,,,,,,,,,,,,,,,0,47,47,46,,,,,,,,,,,,,,,,,,,,,,,,906.5118761999765,906.5118761999765,r,1,0.5108371000969782,,,,,,,,,,,,,,,,,,,,,,,,,,,,,01,2023-03-31_13h55.17.573,divine,2022.2.5,59.923836795525055,
black,black,x,1,,,,,,,,,,,,,,,0,48,48,42,,,,,,,,,,,,,,,,,,,,,,,,907.5454953999724,907.5454953999724,x,1,0.5510087000438944,,,,,,,,,,,,,,,,,,,,,,,,,,,,,01,2023-03-31_13h55.17.573,divine,2022.2.5,59.923836795525055,
green,black,g,0,,,,,,,,,,,,,,,0,49,49,1,,,,,,,,,,,,,,,,,,,,,,,,908.6289267999819,908.6289267999819,g,1,0.5142308999784291,,,,,,,,,,,,,,,,,,,,,,,,,,,,,01,2023-03-31_13h55.17.573,divine,2022.2.5,59.923836795525055,
blue,blue,b,1,,,,,,,,,,,,,,,,,,,0,0,0,3,,,,,,,,,,,,,,,,,,,,909.6623790999874,909.6623790999874,b,1,0.4401670000515878,,,,,,,,,,,,,,,,,,,,,,,,,,,,,01,2023-03-31_13h55.17.573,divine,2022.2.5,59.923836795525055,
red,red,r,1,,,,,,,,,,,,,,,,,,,0,1,1,26,,,,,,,,,,,,,,,,,,,,910.62922360003,910.62922360003,r,1,0.713894399930723,,,,,,,,,,,,,,,,,,,,,,,,,,,,,01,2023-03-31_13h55.17.573,divine,2022.2.5,59.923836795525055,
green,green,g,1,,,,,,,,,,,,,,,,,,,0,2,2,35,,,,,,,,,,,,,,,,,,,,911.8627982999897,911.8627982999897,g,1,0.8395785000175238,,,,,,,,,,,,,,,,,,,,,,,,,,,,,01,2023-03-31_13h55.17.573,divine,2022.2.5,59.923836795525055,
blue,blue,b,1,,,,,,,,,,,,,,,,,,,0,3,3,19,,,,,,,,,,,,,,,,,,,,913.2295989999548,913.2295989999548,b,1,1.033804199891165,,,,,,,,,,,,,,,,,,,,,,,,,,,,,01,2023-03-31_13h55.17.573,divine,2022.2.5,59.923836795525055,
green,green,g,1,,,,,,,,,,,,,,,,,,,0,4,4,6,,,,,,,,,,,,,,,,,,,,914.7799180999864,914.7799180999864,g,1,1.2510601000394672,,,,,,,,,,,,,,,,,,,,,,,,,,,,,01,2023-03-31_13h55.17.573,divine,2022.2.5,59.923836795525055,
blue,blue,b,1,,,,,,,,,,,,,,,,,,,0,5,5,36,,,,,,,,,,,,,,,,,,,,916.563529200037,916.563529200037,b,1,0.8275236999616027,,,,,,,,,,,,,,,,,,,,,,,,,,,,,01,2023-03-31_13h55.17.573,divine,2022.2.5,59.923836795525055,
red,red,r,1,,,,,,,,,,,,,,,,,,,0,6,6,29,,,,,,,,,,,,,,,,,,,,917.9137780000456,917.9137780000456,r,1,0.5166252999333665,,,,,,,,,,,,,,,,,,,,,,,,,,,,,01,2023-03-31_13h55.17.573,divine,2022.2.5,59.923836795525055,
blue,blue,b,1,,,,,,,,,,,,,,,,,,,0,7,7,40,,,,,,,,,,,,,,,,,,,,918.9475831999443,918.9475831999443,b,1,0.7150933000957593,,,,,,,,,,,,,,,,,,,,,,,,,,,,,01,2023-03-31_13h55.17.573,divine,2022.2.5,59.923836795525055,
black,black,x,1,,,,,,,,,,,,,,,,,,,0,8,8,38,,,,,,,,,,,,,,,,,,,,920.1811207999708,920.1811207999708,x,1,0.7452379000606015,,,,,,,,,,,,,,,,,,,,,,,,,,,,,01,2023-03-31_13h55.17.573,divine,2022.2.5,59.923836795525055,
green,green,g,1,,,,,,,,,,,,,,,,,,,0,9,9,22,,,,,,,,,,,,,,,,,,,,921.4476087000221,921.4476087000221,g,1,1.406991200055927,,,,,,,,,,,,,,,,,,,,,,,,,,,,,01,2023-03-31_13h55.17.573,divine,2022.2.5,59.923836795525055,
black,black,x,1,,,,,,,,,,,,,,,,,,,0,10,10,9,,,,,,,,,,,,,,,,,,,,923.3813250999665,923.3813250999665,b,0,1.065922100096941,,,,,,,,,,,,,,,,,,,,,,,,,,,,,01,2023-03-31_13h55.17.573,divine,2022.2.5,59.923836795525055,
black,black,x,1,,,,,,,,,,,,,,,,,,,0,11,11,5,,,,,,,,,,,,,,,,,,,,924.9649529999588,924.9649529999588,b,0,0.6261452999897301,,,,,,,,,,,,,,,,,,,,,,,,,,,,,01,2023-03-31_13h55.17.573,divine,2022.2.5,59.923836795525055,
green,green,g,1,,,,,,,,,,,,,,,,,,,0,12,12,24,,,,,,,,,,,,,,,,,,,,926.1150716999546,926.1150716999546,g,1,0.6518036999041215,,,,,,,,,,,,,,,,,,,,,,,,,,,,,01,2023-03-31_13h55.17.573,divine,2022.2.5,59.923836795525055,
green,green,g,1,,,,,,,,,,,,,,,,,,,0,13,13,18,,,,,,,,,,,,,,,,,,,,927.2985905000241,927.2985905000241,g,1,0.44464080000761896,,,,,,,,,,,,,,,,,,,,,,,,,,,,,01,2023-03-31_13h55.17.573,divine,2022.2.5,59.923836795525055,
red,red,r,1,,,,,,,,,,,,,,,,,,,0,14,14,12,,,,,,,,,,,,,,,,,,,,928.265391999972,928.265391999972,r,1,0.44565450004301965,,,,,,,,,,,,,,,,,,,,,,,,,,,,,01,2023-03-31_13h55.17.573,divine,2022.2.5,59.923836795525055,
red,red,r,1,,,,,,,,,,,,,,,,,,,0,15,15,41,,,,,,,,,,,,,,,,,,,,929.2322453999659,929.2322453999659,r,1,0.4866968001006171,,,,,,,,,,,,,,,,,,,,,,,,,,,,,01,2023-03-31_13h55.17.573,divine,2022.2.5,59.923836795525055,
red,red,r,1,,,,,,,,,,,,,,,,,,,0,16,16,20,,,,,,,,,,,,,,,,,,,,930.2490451999474,930.2490451999474,r,1,0.5098274999763817,,,,,,,,,,,,,,,,,,,,,,,,,,,,,01,2023-03-31_13h55.17.573,divine,2022.2.5,59.923836795525055,
black,black,x,1,,,,,,,,,,,,,,,,,,,0,17,17,17,,,,,,,,,,,,,,,,,,,,931.282646000036,931.282646000036,x,1,0.6694438999984413,,,,,,,,,,,,,,,,,,,,,,,,,,,,,01,2023-03-31_13h55.17.573,divine,2022.2.5,59.923836795525055,
green,green,g,1,,,,,,,,,,,,,,,,,,,0,18,18,31,,,,,,,,,,,,,,,,,,,,932.4827539999969,932.4827539999969,g,1,0.892077700002119,,,,,,,,,,,,,,,,,,,,,,,,,,,,,01,2023-03-31_13h55.17.573,divine,2022.2.5,59.923836795525055,
green,green,g,1,,,,,,,,,,,,,,,,,,,0,19,19,39,,,,,,,,,,,,,,,,,,,,933.8996507000411,933.8996507000411,g,1,0.4438062999397516,,,,,,,,,,,,,,,,,,,,,,,,,,,,,01,2023-03-31_13h55.17.573,divine,2022.2.5,59.923836795525055,
black,black,x,1,,,,,,,,,,,,,,,,,,,0,20,20,13,,,,,,,,,,,,,,,,,,,,934.8664749000454,934.8664749000454,x,1,0.6758708999259397,,,,,,,,,,,,,,,,,,,,,,,,,,,,,01,2023-03-31_13h55.17.573,divine,2022.2.5,59.923836795525055,
blue,blue,b,1,,,,,,,,,,,,,,,,,,,0,21,21,7,,,,,,,,,,,,,,,,,,,,936.0667331999866,936.0667331999866,b,1,1.0678318999707699,,,,,,,,,,,,,,,,,,,,,,,,,,,,,01,2023-03-31_13h55.17.573,divine,2022.2.5,59.923836795525055,
red,red,r,1,,,,,,,,,,,,,,,,,,,0,22,22,8,,,,,,,,,,,,,,,,,,,,937.666944699944,937.666944699944,r,1,0.3877715999260545,,,,,,,,,,,,,,,,,,,,,,,,,,,,,01,2023-03-31_13h55.17.573,divine,2022.2.5,59.923836795525055,
blue,blue,b,1,,,,,,,,,,,,,,,,,,,0,23,23,46,,,,,,,,,,,,,,,,,,,,938.5837390000233,938.5837390000233,b,1,0.5669743999605998,,,,,,,,,,,,,,,,,,,,,,,,,,,,,01,2023-03-31_13h55.17.573,divine,2022.2.5,59.923836795525055,
blue,blue,b,1,,,,,,,,,,,,,,,,,,,0,24,24,32,,,,,,,,,,,,,,,,,,,,939.6673748999601,939.6673748999601,b,1,0.5631113999988884,,,,,,,,,,,,,,,,,,,,,,,,,,,,,01,2023-03-31_13h55.17.573,divine,2022.2.5,59.923836795525055,
blue,blue,b,1,,,,,,,,,,,,,,,,,,,0,25,25,23,,,,,,,,,,,,,,,,,,,,940.7507641999982,940.7507641999982,b,1,0.479611000046134,,,,,,,,,,,,,,,,,,,,,,,,,,,,,01,2023-03-31_13h55.17.573,divine,2022.2.5,59.923836795525055,
red,red,r,1,,,,,,,,,,,,,,,,,,,0,26,26,16,,,,,,,,,,,,,,,,,,,,941.7508669999661,941.7508669999661,r,1,0.5279823000309989,,,,,,,,,,,,,,,,,,,,,,,,,,,,,01,2023-03-31_13h55.17.573,divine,2022.2.5,59.923836795525055,
black,black,x,1,,,,,,,,,,,,,,,,,,,0,27,27,48,,,,,,,,,,,,,,,,,,,,942.8014810000313,942.8014810000313,x,1,0.6050213000271469,,,,,,,,,,,,,,,,,,,,,,,,,,,,,01,2023-03-31_13h55.17.573,divine,2022.2.5,59.923836795525055,
red,red,r,1,,,,,,,,,,,,,,,,,,,0,28,28,0,,,,,,,,,,,,,,,,,,,,943.9346800999483,943.9346800999483,r,1,0.5768413000041619,,,,,,,,,,,,,,,,,,,,,,,,,,,,,01,2023-03-31_13h55.17.573,divine,2022.2.5,59.923836795525055,
green,green,g,1,,,,,,,,,,,,,,,,,,,0,29,29,43,,,,,,,,,,,,,,,,,,,,945.0348108999897,945.0348108999897,g,1,0.6278377000708133,,,,,,,,,,,,,,,,,,,,,,,,,,,,,01,2023-03-31_13h55.17.573,divine,2022.2.5,59.923836795525055,
blue,blue,b,1,,,,,,,,,,,,,,,,,,,0,30,30,11,,,,,,,,,,,,,,,,,,,,946.1682958999882,946.1682958999882,b,1,0.6463362000649795,,,,,,,,,,,,,,,,,,,,,,,,,,,,,01,2023-03-31_13h55.17.573,divine,2022.2.5,59.923836795525055,
green,green,g,1,,,,,,,,,,,,,,,,,,,0,31,31,2,,,,,,,,,,,,,,,,,,,,947.3351425000001,947.3351425000001,g,1,0.6001054999651387,,,,,,,,,,,,,,,,,,,,,,,,,,,,,01,2023-03-31_13h55.17.573,divine,2022.2.5,59.923836795525055,
red,red,r,1,,,,,,,,,,,,,,,,,,,0,32,32,4,,,,,,,,,,,,,,,,,,,,948.4522771999473,948.4522771999473,r,1,0.42690329998731613,,,,,,,,,,,,,,,,,,,,,,,,,,,,,01,2023-03-31_13h55.17.573,divine,2022.2.5,59.923836795525055,
red,red,r,1,,,,,,,,,,,,,,,,,,,0,33,33,47,,,,,,,,,,,,,,,,,,,,949.4020812000381,949.4020812000381,r,1,0.44520529999863356,,,,,,,,,,,,,,,,,,,,,,,,,,,,,01,2023-03-31_13h55.17.573,divine,2022.2.5,59.923836795525055,
green,green,g,1,,,,,,,,,,,,,,,,,,,0,34,34,14,,,,,,,,,,,,,,,,,,,,950.3689440999879,950.3689440999879,g,1,0.5348211000673473,,,,,,,,,,,,,,,,,,,,,,,,,,,,,01,2023-03-31_13h55.17.573,divine,2022.2.5,59.923836795525055,
black,black,x,1,,,,,,,,,,,,,,,,,,,0,35,35,30,,,,,,,,,,,,,,,,,,,,951.43584619998,951.43584619998,x,1,0.5468689000699669,,,,,,,,,,,,,,,,,,,,,,,,,,,,,01,2023-03-31_13h55.17.573,divine,2022.2.5,59.923836795525055,
green,green,g,1,,,,,,,,,,,,,,,,,,,0,36,36,10,,,,,,,,,,,,,,,,,,,,952.5026542999549,952.5026542999549,g,1,0.7517561999848112,,,,,,,,,,,,,,,,,,,,,,,,,,,,,01,2023-03-31_13h55.17.573,divine,2022.2.5,59.923836795525055,
blue,blue,b,1,,,,,,,,,,,,,,,,,,,0,37,37,44,,,,,,,,,,,,,,,,,,,,953.7861541999737,953.7861541999737,b,1,0.6923504000296816,,,,,,,,,,,,,,,,,,,,,,,,,,,,,01,2023-03-31_13h55.17.573,divine,2022.2.5,59.923836795525055,
black,black,x,1,,,,,,,,,,,,,,,,,,,0,38,38,1,,,,,,,,,,,,,,,,,,,,955.0033388000447,955.0033388000447,x,1,0.5074080999474972,,,,,,,,,,,,,,,,,,,,,,,,,,,,,01,2023-03-31_13h55.17.573,divine,2022.2.5,59.923836795525055,
blue,blue,b,1,,,,,,,,,,,,,,,,,,,0,39,39,15,,,,,,,,,,,,,,,,,,,,956.0366413999582,956.0366413999582,b,1,1.0426851001102477,,,,,,,,,,,,,,,,,,,,,,,,,,,,,01,2023-03-31_13h55.17.573,divine,2022.2.5,59.923836795525055,
black,black,x,1,,,,,,,,,,,,,,,,,,,0,40,40,34,,,,,,,,,,,,,,,,,,,,957.6034679999575,957.6034679999575,x,1,1.2275499999523163,,,,,,,,,,,,,,,,,,,,,,,,,,,,,01,2023-03-31_13h55.17.573,divine,2022.2.5,59.923836795525055,
red,red,r,1,,,,,,,,,,,,,,,,,,,0,41,41,37,,,,,,,,,,,,,,,,,,,,959.3537490000017,959.3537490000017,r,1,0.5487624000525102,,,,,,,,,,,,,,,,,,,,,,,,,,,,,01,2023-03-31_13h55.17.573,divine,2022.2.5,59.923836795525055,
green,green,g,1,,,,,,,,,,,,,,,,,,,0,42,42,49,,,,,,,,,,,,,,,,,,,,960.4205800000345,960.4205800000345,g,1,0.5064585999352857,,,,,,,,,,,,,,,,,,,,,,,,,,,,,01,2023-03-31_13h55.17.573,divine,2022.2.5,59.923836795525055,
green,green,g,1,,,,,,,,,,,,,,,,,,,0,43,43,45,,,,,,,,,,,,,,,,,,,,961.4540574999992,961.4540574999992,g,1,0.41653649997897446,,,,,,,,,,,,,,,,,,,,,,,,,,,,,01,2023-03-31_13h55.17.573,divine,2022.2.5,59.923836795525055,
black,black,x,1,,,,,,,,,,,,,,,,,,,0,44,44,27,,,,,,,,,,,,,,,,,,,,962.3875032999786,962.3875032999786,x,1,0.5708986000390723,,,,,,,,,,,,,,,,,,,,,,,,,,,,,01,2023-03-31_13h55.17.573,divine,2022.2.5,59.923836795525055,
black,black,x,1,,,,,,,,,,,,,,,,,,,0,45,45,21,,,,,,,,,,,,,,,,,,,,963.4877504999749,963.4877504999749,x,1,0.6067884000949562,,,,,,,,,,,,,,,,,,,,,,,,,,,,,01,2023-03-31_13h55.17.573,divine,2022.2.5,59.923836795525055,
red,red,r,1,,,,,,,,,,,,,,,,,,,0,46,46,33,,,,,,,,,,,,,,,,,,,,964.6212410000153,964.6212410000153,r,1,0.48167500004637986,,,,,,,,,,,,,,,,,,,,,,,,,,,,,01,2023-03-31_13h55.17.573,divine,2022.2.5,59.923836795525055,
green,green,g,1,,,,,,,,,,,,,,,,,,,0,47,47,28,,,,,,,,,,,,,,,,,,,,965.6214929999551,965.6214929999551,g,1,0.5135270999744534,,,,,,,,,,,,,,,,,,,,,,,,,,,,,01,2023-03-31_13h55.17.573,divine,2022.2.5,59.923836795525055,
blue,blue,b,1,,,,,,,,,,,,,,,,,,,0,48,48,25,,,,,,,,,,,,,,,,,,,,966.6549021999817,966.6549021999817,b,1,0.5929294000379741,,,,,,,,,,,,,,,,,,,,,,,,,,,,,01,2023-03-31_13h55.17.573,divine,2022.2.5,59.923836795525055,
black,black,x,1,,,,,,,,,,,,,,,,,,,0,49,49,42,,,,,,,,,,,,,,,,,,,,967.7717682999792,967.7717682999792,x,1,0.5311322000343353,,,,,,,,,,,,,,,,,,,,,,,,,,,,,01,2023-03-31_13h55.17.573,divine,2022.2.5,59.923836795525055,
green,red,r,0,,,,,,,,,,,,,,,,,,,,,,,0,0,0,20,,,,,,,,,,,,,,,,968.8218881000066,968.8218881000066,r,1,1.6973712999606505,,,,,,,,,,,,,,,,,,,,,,,,,,,,,01,2023-03-31_13h55.17.573,divine,2022.2.5,59.923836795525055,
red,black,x,0,,,,,,,,,,,,,,,,,,,,,,,0,1,1,7,,,,,,,,,,,,,,,,971.0390745999757,971.0390745999757,x,1,1.0009965000208467,,,,,,,,,,,,,,,,,,,,,,,,,,,,,01,2023-03-31_13h55.17.573,divine,2022.2.5,59.923836795525055,
green,red,r,0,,,,,,,,,,,,,,,,,,,,,,,0,2,2,48,,,,,,,,,,,,,,,,972.5725692999549,972.5725692999549,r,1,0.5781159999314696,,,,,,,,,,,,,,,,,,,,,,,,,,,,,01,2023-03-31_13h55.17.573,divine,2022.2.5,59.923836795525055,
green,black,x,0,,,,,,,,,,,,,,,,,,,,,,,0,3,3,16,,,,,,,,,,,,,,,,973.672764900024,973.672764900024,x,1,0.7661472000181675,,,,,,,,,,,,,,,,,,,,,,,,,,,,,01,2023-03-31_13h55.17.573,divine,2022.2.5,59.923836795525055,
blue,green,g,0,,,,,,,,,,,,,,,,,,,,,,,0,4,4,9,,,,,,,,,,,,,,,,974.9563308999641,974.9563308999641,g,1,0.7542041999986395,,,,,,,,,,,,,,,,,,,,,,,,,,,,,01,2023-03-31_13h55.17.573,divine,2022.2.5,59.923836795525055,
green,red,r,0,,,,,,,,,,,,,,,,,,,,,,,0,5,5,49,,,,,,,,,,,,,,,,976.2235100000398,976.2235100000398,r,1,0.6394076999276876,,,,,,,,,,,,,,,,,,,,,,,,,,,,,01,2023-03-31_13h55.17.573,divine,2022.2.5,59.923836795525055,
red,black,x,0,,,,,,,,,,,,,,,,,,,,,,,0,6,6,19,,,,,,,,,,,,,,,,977.3900643000379,977.3900643000379,x,1,0.5693918999750167,,,,,,,,,,,,,,,,,,,,,,,,,,,,,01,2023-03-31_13h55.17.573,divine,2022.2.5,59.923836795525055,
blue,red,r,0,,,,,,,,,,,,,,,,,,,,,,,0,7,7,37,,,,,,,,,,,,,,,,978.4901786999544,978.4901786999544,r,1,0.7403440999332815,,,,,,,,,,,,,,,,,,,,,,,,,,,,,01,2023-03-31_13h55.17.573,divine,2022.2.5,59.923836795525055,
blue,green,g,0,,,,,,,,,,,,,,,,,,,,,,,0,8,8,41,,,,,,,,,,,,,,,,979.7570144999772,979.7570144999772,g,1,1.3139309000689536,,,,,,,,,,,,,,,,,,,,,,,,,,,,,01,2023-03-31_13h55.17.573,divine,2022.2.5,59.923836795525055,
red,blue,b,0,,,,,,,,,,,,,,,,,,,,,,,0,9,9,3,,,,,,,,,,,,,,,,981.5906522000441,981.5906522000441,b,1,0.7356039999285713,,,,,,,,,,,,,,,,,,,,,,,,,,,,,01,2023-03-31_13h55.17.573,divine,2022.2.5,59.923836795525055,
blue,red,r,0,,,,,,,,,,,,,,,,,,,,,,,0,10,10,5,,,,,,,,,,,,,,,,982.8575439000269,982.8575439000269,r,1,0.43726939999032766,,,,,,,,,,,,,,,,,,,,,,,,,,,,,01,2023-03-31_13h55.17.573,divine,2022.2.5,59.923836795525055,
green,blue,b,0,,,,,,,,,,,,,,,,,,,,,,,0,11,11,0,,,,,,,,,,,,,,,,983.824692599941,983.824692599941,b,1,0.7737734999973327,,,,,,,,,,,,,,,,,,,,,,,,,,,,,01,2023-03-31_13h55.17.573,divine,2022.2.5,59.923836795525055,
black,green,g,0,,,,,,,,,,,,,,,,,,,,,,,0,12,12,18,,,,,,,,,,,,,,,,985.1245741000166,985.1245741000166,g,1,0.4502793999854475,,,,,,,,,,,,,,,,,,,,,,,,,,,,,01,2023-03-31_13h55.17.573,divine,2022.2.5,59.923836795525055,
black,blue,b,0,,,,,,,,,,,,,,,,,,,,,,,0,13,13,10,,,,,,,,,,,,,,,,986.0914296000265,986.0914296000265,b,1,0.7004405999323353,,,,,,,,,,,,,,,,,,,,,,,,,,,,,01,2023-03-31_13h55.17.573,divine,2022.2.5,59.923836795525055,
black,red,r,0,,,,,,,,,,,,,,,,,,,,,,,0,14,14,34,,,,,,,,,,,,,,,,987.3249219999416,987.3249219999416,r,1,0.6511936999158934,,,,,,,,,,,,,,,,,,,,,,,,,,,,,01,2023-03-31_13h55.17.573,divine,2022.2.5,59.923836795525055,
green,blue,b,0,,,,,,,,,,,,,,,,,,,,,,,0,15,15,12,,,,,,,,,,,,,,,,988.5084405000089,988.5084405000089,g,0,0.8980330000631511,,,,,,,,,,,,,,,,,,,,,,,,,,,,,01,2023-03-31_13h55.17.573,divine,2022.2.5,59.923836795525055,
green,black,x,0,,,,,,,,,,,,,,,,,,,,,,,0,16,16,4,,,,,,,,,,,,,,,,989.9253440999892,989.9253440999892,x,1,0.922894100076519,,,,,,,,,,,,,,,,,,,,,,,,,,,,,01,2023-03-31_13h55.17.573,divine,2022.2.5,59.923836795525055,
blue,black,x,0,,,,,,,,,,,,,,,,,,,,,,,0,17,17,13,,,,,,,,,,,,,,,,991.3756042999448,991.3756042999448,x,1,0.8476287999656051,,,,,,,,,,,,,,,,,,,,,,,,,,,,,01,2023-03-31_13h55.17.573,divine,2022.2.5,59.923836795525055,
black,green,g,0,,,,,,,,,,,,,,,,,,,,,,,0,18,18,6,,,,,,,,,,,,,,,,992.7424732999643,992.7424732999643,g,1,0.6097004000330344,,,,,,,,,,,,,,,,,,,,,,,,,,,,,01,2023-03-31_13h55.17.573,divine,2022.2.5,59.923836795525055,
green,red,r,0,,,,,,,,,,,,,,,,,,,,,,,0,19,19,25,,,,,,,,,,,,,,,,993.8763544999529,993.8763544999529,r,1,0.44992859999183565,,,,,,,,,,,,,,,,,,,,,,,,,,,,,01,2023-03-31_13h55.17.573,divine,2022.2.5,59.923836795525055,
green,black,x,0,,,,,,,,,,,,,,,,,,,,,,,0,20,20,36,,,,,,,,,,,,,,,,994.8428053000243,994.8428053000243,x,1,0.5399312999797985,,,,,,,,,,,,,,,,,,,,,,,,,,,,,01,2023-03-31_13h55.17.573,divine,2022.2.5,59.923836795525055,
black,blue,b,0,,,,,,,,,,,,,,,,,,,,,,,0,21,21,42,,,,,,,,,,,,,,,,995.9097058000043,995.9097058000043,b,1,0.5293953999644145,,,,,,,,,,,,,,,,,,,,,,,,,,,,,01,2023-03-31_13h55.17.573,divine,2022.2.5,59.923836795525055,
black,blue,b,0,,,,,,,,,,,,,,,,,,,,,,,0,22,22,22,,,,,,,,,,,,,,,,996.9597666000482,996.9597666000482,b,1,0.4307439000112936,,,,,,,,,,,,,,,,,,,,,,,,,,,,,01,2023-03-31_13h55.17.573,divine,2022.2.5,59.923836795525055,
blue,black,x,0,,,,,,,,,,,,,,,,,,,,,,,0,23,23,33,,,,,,,,,,,,,,,,997.9099227000261,997.9099227000261,x,1,1.0732106999494135,,,,,,,,,,,,,,,,,,,,,,,,,,,,,01,2023-03-31_13h55.17.573,divine,2022.2.5,59.923836795525055,
black,green,g,0,,,,,,,,,,,,,,,,,,,,,,,0,24,24,43,,,,,,,,,,,,,,,,999.5101883000461,999.5101883000461,g,1,0.6805211999453604,,,,,,,,,,,,,,,,,,,,,,,,,,,,,01,2023-03-31_13h55.17.573,divine,2022.2.5,59.923836795525055,
blue,green,g,0,,,,,,,,,,,,,,,,,,,,,,,0,25,25,21,,,,,,,,,,,,,,,,1000.7103822999634,1000.7103822999634,g,1,0.6176497999113053,,,,,,,,,,,,,,,,,,,,,,,,,,,,,01,2023-03-31_13h55.17.573,divine,2022.2.5,59.923836795525055,
red,blue,b,0,,,,,,,,,,,,,,,,,,,,,,,0,26,26,15,,,,,,,,,,,,,,,,1001.8605886000441,1001.8605886000441,b,1,0.786320999963209,,,,,,,,,,,,,,,,,,,,,,,,,,,,,01,2023-03-31_13h55.17.573,divine,2022.2.5,59.923836795525055,
red,green,g,0,,,,,,,,,,,,,,,,,,,,,,,0,27,27,11,,,,,,,,,,,,,,,,1003.1773981000297,1003.1773981000297,g,1,0.9175933999940753,,,,,,,,,,,,,,,,,,,,,,,,,,,,,01,2023-03-31_13h55.17.573,divine,2022.2.5,59.923836795525055,
black,red,r,0,,,,,,,,,,,,,,,,,,,,,,,0,28,28,2,,,,,,,,,,,,,,,,1004.6277058999985,1004.6277058999985,r,1,0.7308503000531346,,,,,,,,,,,,,,,,,,,,,,,,,,,,,01,2023-03-31_13h55.17.573,divine,2022.2.5,59.923836795525055,
black,green,g,0,,,,,,,,,,,,,,,,,,,,,,,0,29,29,38,,,,,,,,,,,,,,,,1005.8779500999954,1005.8779500999954,g,1,0.5209622000111267,,,,,,,,,,,,,,,,,,,,,,,,,,,,,01,2023-03-31_13h55.17.573,divine,2022.2.5,59.923836795525055,
black,red,r,0,,,,,,,,,,,,,,,,,,,,,,,0,30,30,14,,,,,,,,,,,,,,,,1006.9281226999592,1006.9281226999592,r,1,0.5105611000908539,,,,,,,,,,,,,,,,,,,,,,,,,,,,,01,2023-03-31_13h55.17.573,divine,2022.2.5,59.923836795525055,
red,blue,b,0,,,,,,,,,,,,,,,,,,,,,,,0,31,31,35,,,,,,,,,,,,,,,,1007.9615764999762,1007.9615764999762,b,1,0.4703008000506088,,,,,,,,,,,,,,,,,,,,,,,,,,,,,01,2023-03-31_13h55.17.573,divine,2022.2.5,59.923836795525055,
green,red,r,0,,,,,,,,,,,,,,,,,,,,,,,0,32,32,8,,,,,,,,,,,,,,,,1008.9620815999806,1008.9620815999806,g,0,0.6367775000398979,,,,,,,,,,,,,,,,,,,,,,,,,,,,,01,2023-03-31_13h55.17.573,divine,2022.2.5,59.923836795525055,
black,blue,b,0,,,,,,,,,,,,,,,,,,,,,,,0,33,33,30,,,,,,,,,,,,,,,,1010.1285834000446,1010.1285834000446,b,1,0.9984928999328986,,,,,,,,,,,,,,,,,,,,,,,,,,,,,01,2023-03-31_13h55.17.573,divine,2022.2.5,59.923836795525055,
blue,red,r,0,,,,,,,,,,,,,,,,,,,,,,,0,34,34,17,,,,,,,,,,,,,,,,1011.6454835999757,1011.6454835999757,r,1,0.5289247999899089,,,,,,,,,,,,,,,,,,,,,,,,,,,,,01,2023-03-31_13h55.17.573,divine,2022.2.5,59.923836795525055,
black,blue,b,0,,,,,,,,,,,,,,,,,,,,,,,0,35,35,27,,,,,,,,,,,,,,,,1012.6957412000047,1012.6957412000047,b,1,0.7510985999833792,,,,,,,,,,,,,,,,,,,,,,,,,,,,,01,2023-03-31_13h55.17.573,divine,2022.2.5,59.923836795525055,
blue,green,g,0,,,,,,,,,,,,,,,,,,,,,,,0,36,36,26,,,,,,,,,,,,,,,,1013.9792613999452,1013.9792613999452,g,1,0.6277972999960184,,,,,,,,,,,,,,,,,,,,,,,,,,,,,01,2023-03-31_13h55.17.573,divine,2022.2.5,59.923836795525055,
blue,green,g,0,,,,,,,,,,,,,,,,,,,,,,,0,37,37,46,,,,,,,,,,,,,,,,1015.1293960999465,1015.1293960999465,g,1,0.5569711999269202,,,,,,,,,,,,,,,,,,,,,,,,,,,,,01,2023-03-31_13h55.17.573,divine,2022.2.5,59.923836795525055,
green,red,r,0,,,,,,,,,,,,,,,,,,,,,,,0,38,38,40,,,,,,,,,,,,,,,,1016.2133214999922,1016.2133214999922,r,1,1.0341342000756413,,,,,,,,,,,,,,,,,,,,,,,,,,,,,01,2023-03-31_13h55.17.573,divine,2022.2.5,59.923836795525055,
red,green,g,0,,,,,,,,,,,,,,,,,,,,,,,0,39,39,31,,,,,,,,,,,,,,,,1017.7798336000415,1017.7798336000415,g,1,0.5870832999935374,,,,,,,,,,,,,,,,,,,,,,,,,,,,,01,2023-03-31_13h55.17.573,divine,2022.2.5,59.923836795525055,
blue,black,x,0,,,,,,,,,,,,,,,,,,,,,,,0,40,40,1,,,,,,,,,,,,,,,,1018.8966458999785,1018.8966458999785,x,1,0.573843999998644,,,,,,,,,,,,,,,,,,,,,,,,,,,,,01,2023-03-31_13h55.17.573,divine,2022.2.5,59.923836795525055,
blue,green,g,0,,,,,,,,,,,,,,,,,,,,,,,0,41,41,29,,,,,,,,,,,,,,,,1019.9967939000344,1019.9967939000344,g,1,0.9781353999860585,,,,,,,,,,,,,,,,,,,,,,,,,,,,,01,2023-03-31_13h55.17.573,divine,2022.2.5,59.923836795525055,
green,red,r,0,,,,,,,,,,,,,,,,,,,,,,,0,42,42,45,,,,,,,,,,,,,,,,1021.497369299992,1021.497369299992,r,1,0.48625740001443774,,,,,,,,,,,,,,,,,,,,,,,,,,,,,01,2023-03-31_13h55.17.573,divine,2022.2.5,59.923836795525055,
red,black,x,0,,,,,,,,,,,,,,,,,,,,,,,0,43,43,39,,,,,,,,,,,,,,,,1022.5138821,1022.5138821,x,1,0.6683790000388399,,,,,,,,,,,,,,,,,,,,,,,,,,,,,01,2023-03-31_13h55.17.573,divine,2022.2.5,59.923836795525055,
red,black,x,0,,,,,,,,,,,,,,,,,,,,,,,0,44,44,44,,,,,,,,,,,,,,,,1023.714082099963,1023.714082099963,x,1,0.5887941000983119,,,,,,,,,,,,,,,,,,,,,,,,,,,,,01,2023-03-31_13h55.17.573,divine,2022.2.5,59.923836795525055,
black,green,g,0,,,,,,,,,,,,,,,,,,,,,,,0,45,45,23,,,,,,,,,,,,,,,,1024.8309987999965,1024.8309987999965,g,1,0.7766402000561357,,,,,,,,,,,,,,,,,,,,,,,,,,,,,01,2023-03-31_13h55.17.573,divine,2022.2.5,59.923836795525055,
black,blue,b,0,,,,,,,,,,,,,,,,,,,,,,,0,46,46,47,,,,,,,,,,,,,,,,1026.1311430999776,1026.1311430999776,b,1,0.5004831000696868,,,,,,,,,,,,,,,,,,,,,,,,,,,,,01,2023-03-31_13h55.17.573,divine,2022.2.5,59.923836795525055,
red,black,x,0,,,,,,,,,,,,,,,,,,,,,,,0,47,47,24,,,,,,,,,,,,,,,,1027.1479745999677,1027.1479745999677,x,1,0.618551200022921,,,,,,,,,,,,,,,,,,,,,,,,,,,,,01,2023-03-31_13h55.17.573,divine,2022.2.5,59.923836795525055,
green,blue,b,0,,,,,,,,,,,,,,,,,,,,,,,0,48,48,32,,,,,,,,,,,,,,,,1028.298157399986,1028.298157399986,b,1,1.4682223000563681,,,,,,,,,,,,,,,,,,,,,,,,,,,,,01,2023-03-31_13h55.17.573,divine,2022.2.5,59.923836795525055,
green,red,r,0,,,,,,,,,,,,,,,,,,,,,,,0,49,49,28,,,,,,,,,,,,,,,,1030.2818580999738,1030.2818580999738,r,1,0.630116100073792,,,,,,,,,,,,,,,,,,,,,,,,,,,,,01,2023-03-31_13h55.17.573,divine,2022.2.5,59.923836795525055,
,,,,,,,,,,,,,,,,,,,,,,,,,,,,,,,,,,,,,,,,,,1030.9319677000167,,,,,,,,,,,,,,,,,,1330.9470460000448,1330.9470460000448,space,5.380244300002232,,,,,,,,,,,,,,,01,2023-03-31_13h55.17.573,divine,2022.2.5,59.923836795525055,
,,,,A,None,,,,,,,,,,,,,,,,,,,,,,,,,0,0,0,0,,,,,,,,,,,,,,,,,,,,,,,,,,,,,,,1336.4085851999698,1336.4085851999698,None,1,1337.8645814699819,,,,,,,,,,01,2023-03-31_13h55.17.573,divine,2022.2.5,59.923836795525055,
,,,,G,None,,,,,,,,,,,,,,,,,,,,,,,,,0,1,1,1,,,,,,,,,,,,,,,,,,,,,,,,,,,,,,,1338.3702879999764,1338.3702879999764,None,1,1339.8649348699953,,,,,,,,,,01,2023-03-31_13h55.17.573,divine,2022.2.5,59.923836795525055,
,,,,A,['space'],,,,,,,,,,,,,,,,,,,,,,,,,0,2,2,2,,,,,,,,,,,,,,,,,,,,,,,,,,,,,,,1340.3651182999602,1340.3651182999602,['space'],1,1340.848462269944,[0.4582264000782743],,,,,,,,,01,2023-03-31_13h55.17.573,divine,2022.2.5,59.923836795525055,
,,,,F,None,,,,,,,,,,,,,,,,,,,,,,,,,0,3,3,3,,,,,,,,,,,,,,,,,,,,,,,,,,,,,,,1341.3518986999989,1341.3518986999989,None,1,1342.8653683700365,,,,,,,,,,01,2023-03-31_13h55.17.573,divine,2022.2.5,59.923836795525055,
,,,,A,None,,,,,,,,,,,,,,,,,,,,,,,,,0,4,4,4,,,,,,,,,,,,,,,,,,,,,,,,,,,,,,,1343.3655827000039,1343.3655827000039,None,1,1344.8657905699918,,,,,,,,,,01,2023-03-31_13h55.17.573,divine,2022.2.5,59.923836795525055,
,,,,B,None,,,,,,,,,,,,,,,,,,,,,,,,,0,5,5,5,,,,,,,,,,,,,,,,,,,,,,,,,,,,,,,1345.3703108000336,1345.3703108000336,None,1,1346.8660424699308,,,,,,,,,,01,2023-03-31_13h55.17.573,divine,2022.2.5,59.923836795525055,
,,,,A,['space'],,,,,,,,,,,,,,,,,,,,,,,,,0,6,6,6,,,,,,,,,,,,,,,,,,,,,,,,,,,,,,,1347.3662323999451,1347.3662323999451,['space'],1,1347.9662697700085,[0.5761244999011979],,,,,,,,,01,2023-03-31_13h55.17.573,divine,2022.2.5,59.923836795525055,
,,,,B,['space'],,,,,,,,,,,,,,,,,,,,,,,,,0,7,7,7,,,,,,,,,,,,,,,,,,,,,,,,,,,,,,,1348.4662993999664,1348.4662993999664,['space'],1,1349.3830609699478,[0.8840529000153765],1349.8865939000389,,,,,,,,01,2023-03-31_13h55.17.573,divine,2022.2.5,59.923836795525055,
,,,,E,None,,,,,,,,,,,,,,,,,,,,,,,,,0,8,8,8,,,,,,,,,,,,,,,,,,,,,,,,,,,,,,,1349.8865939000389,1349.8865939000389,None,1,1351.400032569957,,,,,,,,,,01,2023-03-31_13h55.17.573,divine,2022.2.5,59.923836795525055,
,,,,B,['space'],,,,,,,,,,,,,,,,,,,,,,,,,0,9,9,9,,,,,,,,,,,,,,,,,,,,,,,,,,,,,,,1351.9002593000187,1351.9002593000187,['space'],1,1352.9669847699813,[1.0500007000518963],1353.4674018999794,,,,,,,,01,2023-03-31_13h55.17.573,divine,2022.2.5,59.923836795525055,
,,,,E,['space'],,,,,,,,,,,,,,,,,,,,,,,,,0,10,10,10,,,,,,,,,,,,,,,,,,,,,,,,,,,,,,,1353.4674018999794,1353.4674018999794,['space'],1,1354.1838404699927,[0.6916789999231696],,,,,,,,,01,2023-03-31_13h55.17.573,divine,2022.2.5,59.923836795525055,
,,,,F,None,,,,,,,,,,,,,,,,,,,,,,,,,0,11,11,11,,,,,,,,,,,,,,,,,,,,,,,,,,,,,,,1354.6844447000185,1354.6844447000185,None,1,1356.1842547700041,,,1356.1842667999445,1356.1842667999445,,,,,,01,2023-03-31_13h55.17.573,divine,2022.2.5,59.923836795525055,
,,,,G,None,,,,,,,,,,,,,,,,,,,,,,,,,0,12,12,12,,,,,,,,,,,,,,,,,,,,,,,,,,,,,,,1356.6843460999662,1356.6843460999662,None,1,1358.1844828699948,,,1358.1846062999684,1358.1846062999684,,,,,,01,2023-03-31_13h55.17.573,divine,2022.2.5,59.923836795525055,
,,,,D,None,,,,,,,,,,,,,,,,,,,,,,,,,0,13,13,13,,,,,,,,,,,,,,,,,,,,,,,,,,,,,,,1358.6886326000094,1358.6886326000094,None,1,1360.201594970026,,,,,,,,,,01,2023-03-31_13h55.17.573,divine,2022.2.5,59.923836795525055,
,,,,G,['space'],,,,,,,,,,,,,,,,,,,,,,,,,0,14,14,14,,,,,,,,,,,,,,,,,,,,,,,,,,,,,,,1360.6850485999603,1360.6850485999603,['space'],1,1361.2016978699946,[0.49009610002394766],1361.701875800034,,,,,,,,01,2023-03-31_13h55.17.573,divine,2022.2.5,59.923836795525055,
,,,,D,['space'],,,,,,,,,,,,,,,,,,,,,,,,,0,15,15,15,,,,,,,,,,,,,,,,,,,,,,,,,,,,,,,1361.701875800034,1361.701875800034,['space'],1,1362.585281469929,[0.8574601999716833],1363.0854270999553,,,,,,,,01,2023-03-31_13h55.17.573,divine,2022.2.5,59.923836795525055,
,,,,A,None,,,,,,,,,,,,,,,,,,,,,,,,,0,16,16,16,,,,,,,,,,,,,,,,,,,,,,,,,,,,,,,1363.0854270999553,1363.0854270999553,None,1,1364.5855678700143,,,1364.5856678000418,1364.5856678000418,,,,,,01,2023-03-31_13h55.17.573,divine,2022.2.5,59.923836795525055,
,,,,F,None,,,,,,,,,,,,,,,,,,,,,,,,,0,17,17,17,,,,,,,,,,,,,,,,,,,,,,,,,,,,,,,1365.085820700042,1365.085820700042,None,1,1366.585807469976,,,1366.5859919999493,1366.5859919999493,,,,,,01,2023-03-31_13h55.17.573,divine,2022.2.5,59.923836795525055,
,,,,A,None,,,,,,,,,,,,,,,,,,,,,,,,,0,18,18,18,,,,,,,,,,,,,,,,,,,,,,,,,,,,,,,1367.0860371999443,1367.0860371999443,['space'],0,1367.6527540699578,[0.545101199997589],1368.1528867000015,,,,,,,,01,2023-03-31_13h55.17.573,divine,2022.2.5,59.923836795525055,
,,,,F,['space'],,,,,,,,,,,,,,,,,,,,,,,,,0,19,19,19,,,,,,,,,,,,,,,,,,,,,,,,,,,,,,,1368.1528867000015,1368.1528867000015,['space'],1,1369.0199798700166,[0.838169900001958],1369.5197833999991,,,,,,,,01,2023-03-31_13h55.17.573,divine,2022.2.5,59.923836795525055,
,,,,E,None,,,,,,,,,,,,,,,,,,,,,,,,,0,20,20,20,,,,,,,,,,,,,,,,,,,,,,,,,,,,,,,1369.5197833999991,1369.5197833999991,None,1,1371.0199272699654,,,1371.0200021000346,1371.0200021000346,,,,,,01,2023-03-31_13h55.17.573,divine,2022.2.5,59.923836795525055,
,,,,B,None,,,,,,,,,,,,,,,,,,,,,,,,,0,21,21,21,,,,,,,,,,,,,,,,,,,,,,,,,,,,,,,1371.5201585999457,1371.5201585999457,None,1,1373.0202428700402,,,1373.0203157999786,1373.0203157999786,,,,,,01,2023-03-31_13h55.17.573,divine,2022.2.5,59.923836795525055,
,,,,E,['space'],,,,,,,,,,,,,,,,,,,,,,,,,0,22,22,22,,,,,,,,,,,,,,,,,,,,,,,,,,,,,,,1373.5203825000208,1373.5203825000208,['space'],1,1374.1370861699804,[0.5905793999554589],,,,,,,,,01,2023-03-31_13h55.17.573,divine,2022.2.5,59.923836795525055,
,,,,C,None,,,,,,,,,,,,,,,,,,,,,,,,,0,23,23,23,,,,,,,,,,,,,,,,,,,,,,,,,,,,,,,1374.6414867000422,1374.6414867000422,None,1,1376.154263670044,,,,,,,,,,01,2023-03-31_13h55.17.573,divine,2022.2.5,59.923836795525055,
,,,,E,None,,,,,,,,,,,,,,,,,,,,,,,,,0,24,24,24,,,,,,,,,,,,,,,,,,,,,,,,,,,,,,,1376.6543177999556,1376.6543177999556,['space'],0,1377.8711490699322,[1.20049340010155],,,,,,,,,01,2023-03-31_13h55.17.573,divine,2022.2.5,59.923836795525055,
,,,,C,['space'],,,,,,,,,,,,,,,,,,,,,,,,,0,25,25,25,,,,,,,,,,,,,,,,,,,,,,,,,,,,,,,1378.3712800999638,1378.3712800999638,['space'],1,1379.1712450700113,[0.7714329001028091],1379.6715313999448,,,,,,,,01,2023-03-31_13h55.17.573,divine,2022.2.5,59.923836795525055,
,,,,A,None,,,,,,,,,,,,,,,,,,,,,,,,,0,26,26,26,,,,,,,,,,,,,,,,,,,,,,,,,,,,,,,1379.6715313999448,1379.6715313999448,None,1,1381.1719686699332,,1381.671800000011,1381.171647900017,1381.171647900017,,,,,,01,2023-03-31_13h55.17.573,divine,2022.2.5,59.923836795525055,
,,,,D,None,,,,,,,,,,,,,,,,,,,,,,,,,0,27,27,27,,,,,,,,,,,,,,,,,,,,,,,,,,,,,,,1381.671800000011,1381.671800000011,None,1,1383.1719160699984,,1383.6721321999794,1383.1719795999816,1383.1719795999816,,,,,,01,2023-03-31_13h55.17.573,divine,2022.2.5,59.923836795525055,
,,,,A,['space'],,,,,,,,,,,,,,,,,,,,,,,,,0,28,28,28,,,,,,,,,,,,,,,,,,,,,,,,,,,,,,,1383.6721321999794,1383.6721321999794,['space'],1,1384.5721654699416,[0.8791438000043854],1385.0723377999384,,,,,,,,01,2023-03-31_13h55.17.573,divine,2022.2.5,59.923836795525055,
,,,,F,None,,,,,,,,,,,,,,,,,,,,,,,,,0,29,29,29,,,,,,,,,,,,,,,,,,,,,,,,,,,,,,,1385.0723377999384,1385.0723377999384,None,1,1386.5724424699554,,1387.0725818999344,1386.5724991000025,1386.5724991000025,,,,,,01,2023-03-31_13h55.17.573,divine,2022.2.5,59.923836795525055,
,,,,G,['space'],,,,,,,,,,,,,,,,,,,,,,,,,0,30,30,30,,,,,,,,,,,,,,,,,,,,,,,,,,,,,,,1387.0725818999344,1387.0725818999344,None,0,1388.5728105699643,,,1388.5728875000495,1388.5728875000495,,,,,,01,2023-03-31_13h55.17.573,divine,2022.2.5,59.923836795525055,
,,,,,,,,,,,,,,,,,,,,,,,,,,,,,,,,,,,,,,,,,,,,,,,,,,,,,,,,,,,,,,,,,,,,,,,,,1389.0728857000358,1389.0728857000358,space,3.879432799993083,,01,2023-03-31_13h55.17.573,divine,2022.2.5,59.923836795525055,
,,,,,,,,,,,,,,,,,,,,,,,,,,,,,,,,,,,,,,,,,,,,,,,,,,,,,,,,,,,1392.9735310999677,1692.9884816999547,1692.9884816999547,space,2.7552596998866647,,,,,,,,,,,,,,,01,2023-03-31_13h55.17.573,divine,2022.2.5,59.923836795525055,
,,,,A,None,,,,,,,,,,,,,,,,,,,,,,,,,,,,,0,0,0,0,,,,,,,,,,,,,,,,,,,,,,,,,,,1695.7765361999627,1695.7765361999627,None,1,1697.2890843699686,,,,,,,,,,01,2023-03-31_13h55.17.573,divine,2022.2.5,59.923836795525055,
,,,,G,None,,,,,,,,,,,,,,,,,,,,,,,,,,,,,0,1,1,1,,,,,,,,,,,,,,,,,,,,,,,,,,,1697.7892820000416,1697.7892820000416,None,1,1699.289454369992,,,,,,,,,,01,2023-03-31_13h55.17.573,divine,2022.2.5,59.923836795525055,
,,,,A,['space'],,,,,,,,,,,,,,,,,,,,,,,,,,,,,0,2,2,2,,,,,,,,,,,,,,,,,,,,,,,,,,,1699.7896165000275,1699.7896165000275,['space'],1,1700.4399798699421,[0.6175953999627382],1700.9401904999977,,,,,,,,01,2023-03-31_13h55.17.573,divine,2022.2.5,59.923836795525055,
,,,,F,None,,,,,,,,,,,,,,,,,,,,,,,,,,,,,0,3,3,3,,,,,,,,,,,,,,,,,,,,,,,,,,,1700.9401904999977,1700.9401904999977,None,1,1702.4399169700453,,,1702.440019199974,1702.440019199974,,,,,,01,2023-03-31_13h55.17.573,divine,2022.2.5,59.923836795525055,
,,,,A,None,,,,,,,,,,,,,,,,,,,,,,,,,,,,,0,4,4,4,,,,,,,,,,,,,,,,,,,,,,,,,,,1702.940178000019,1702.940178000019,['space'],0,1703.7067955700447,[0.738693599938415],1704.2069218000397,,,,,,,,01,2023-03-31_13h55.17.573,divine,2022.2.5,59.923836795525055,
,,,,B,None,,,,,,,,,,,,,,,,,,,,,,,,,,,,,0,5,5,5,,,,,,,,,,,,,,,,,,,,,,,,,,,1704.2069218000397,1704.2069218000397,None,1,1705.707046069973,,1706.207240000018,1705.7078454999719,1705.7078454999719,,,,,,01,2023-03-31_13h55.17.573,divine,2022.2.5,59.923836795525055,
,,,,A,['space'],,,,,,,,,,,,,,,,,,,,,,,,,,,,,0,6,6,6,,,,,,,,,,,,,,,,,,,,,,,,,,,1706.207240000018,1706.207240000018,['space'],1,1707.3073714699829,[1.0715729999355972],1707.807586299954,,,,,,,,01,2023-03-31_13h55.17.573,divine,2022.2.5,59.923836795525055,
,,,,B,['space'],,,,,,,,,,,,,,,,,,,,,,,,,,,,,0,7,7,7,,,,,,,,,,,,,,,,,,,,,,,,,,,1707.807586299954,1707.807586299954,['space'],1,1708.6742669699713,[0.8477819000836462],,,,,,,,,01,2023-03-31_13h55.17.573,divine,2022.2.5,59.923836795525055,
,,,,E,None,,,,,,,,,,,,,,,,,,,,,,,,,,,,,0,8,8,8,,,,,,,,,,,,,,,,,,,,,,,,,,,1709.1744672999484,1709.1744672999484,None,1,1710.6744894700357,,,1710.6746315000346,1710.6746315000346,,,,,,01,2023-03-31_13h55.17.573,divine,2022.2.5,59.923836795525055,
,,,,B,['space'],,,,,,,,,,,,,,,,,,,,,,,,,,,,,0,9,9,9,,,,,,,,,,,,,,,,,,,,,,,,,,,1711.174741899944,1711.174741899944,None,0,1712.6748735699337,,1713.1751503000269,1712.6749640000053,1712.6749640000053,,,,,,01,2023-03-31_13h55.17.573,divine,2022.2.5,59.923836795525055,
,,,,E,['space'],,,,,,,,,,,,,,,,,,,,,,,,,,,,,0,10,10,10,,,,,,,,,,,,,,,,,,,,,,,,,,,1713.1751503000269,1713.1751503000269,['space'],1,1713.7583907700143,[0.5516281999880448],,,,,,,,,01,2023-03-31_13h55.17.573,divine,2022.2.5,59.923836795525055,
,,,,F,None,,,,,,,,,,,,,,,,,,,,,,,,,,,,,0,11,11,11,,,,,,,,,,,,,,,,,,,,,,,,,,,1714.2586561000207,1714.2586561000207,None,1,1715.7588453699834,,,1715.7588308999548,1715.7588308999548,,,,,,01,2023-03-31_13h55.17.573,divine,2022.2.5,59.923836795525055,
,,,,G,None,,,,,,,,,,,,,,,,,,,,,,,,,,,,,0,12,12,12,,,,,,,,,,,,,,,,,,,,,,,,,,,1716.2588739999337,1716.2588739999337,None,1,1717.7590596699854,,1718.2592518000165,1717.7591468000319,1717.7591468000319,,,,,,01,2023-03-31_13h55.17.573,divine,2022.2.5,59.923836795525055,
,,,,D,None,,,,,,,,,,,,,,,,,,,,,,,,,,,,,0,13,13,13,,,,,,,,,,,,,,,,,,,,,,,,,,,1718.2592518000165,1718.2592518000165,None,1,1719.7593622699612,,1720.2595637999475,1719.7594541000435,1719.7594541000435,,,,,,01,2023-03-31_13h55.17.573,divine,2022.2.5,59.923836795525055,
,,,,G,['space'],,,,,,,,,,,,,,,,,,,,,,,,,,,,,0,14,14,14,,,,,,,,,,,,,,,,,,,,,,,,,,,1720.2595637999475,1720.2595637999475,['space'],1,1721.026242869976,[0.7468919999664649],,,,,,,,,01,2023-03-31_13h55.17.573,divine,2022.2.5,59.923836795525055,
,,,,D,['space'],,,,,,,,,,,,,,,,,,,,,,,,,,,,,0,15,15,15,,,,,,,,,,,,,,,,,,,,,,,,,,,1721.5267918000463,1721.5267918000463,['space'],1,1722.3431018699891,[0.7920715999789536],1722.8432819000445,,,,,,,,01,2023-03-31_13h55.17.573,divine,2022.2.5,59.923836795525055,
,,,,A,None,,,,,,,,,,,,,,,,,,,,,,,,,,,,,0,16,16,16,,,,,,,,,,,,,,,,,,,,,,,,,,,1722.8432819000445,1722.8432819000445,None,1,1724.343439770001,,1724.843607399962,1724.3435312999645,1724.3435312999645,,,,,,01,2023-03-31_13h55.17.573,divine,2022.2.5,59.923836795525055,
,,,,F,None,,,,,,,,,,,,,,,,,,,,,,,,,,,,,0,17,17,17,,,,,,,,,,,,,,,,,,,,,,,,,,,1724.843607399962,1724.843607399962,None,1,1726.343741869973,,1726.8439773999853,1726.3438161000377,1726.3438161000377,,,,,,01,2023-03-31_13h55.17.573,divine,2022.2.5,59.923836795525055,
,,,,A,None,,,,,,,,,,,,,,,,,,,,,,,,,,,,,0,18,18,18,,,,,,,,,,,,,,,,,,,,,,,,,,,1726.8439773999853,1726.8439773999853,['space'],0,1727.6273691700305,[0.7634012000635266],,,,,,,,,01,2023-03-31_13h55.17.573,divine,2022.2.5,59.923836795525055,
,,,,F,['space'],,,,,,,,,,,,,,,,,,,,,,,,,,,,,0,19,19,19,,,,,,,,,,,,,,,,,,,,,,,,,,,1728.1274647000246,1728.1274647000246,['space'],1,1728.9441575699718,[0.800092599936761],1729.4444617000408,,,,,,,,01,2023-03-31_13h55.17.573,divine,2022.2.5,59.923836795525055,
,,,,E,None,,,,,,,,,,,,,,,,,,,,,,,,,,,,,0,20,20,20,,,,,,,,,,,,,,,,,,,,,,,,,,,1729.4444617000408,1729.4444617000408,None,1,1730.9444905699463,,1731.4447972000344,1730.9445851000492,1730.9445851000492,,,,,,01,2023-03-31_13h55.17.573,divine,2022.2.5,59.923836795525055,
,,,,B,None,,,,,,,,,,,,,,,,,,,,,,,,,,,,,0,21,21,21,,,,,,,,,,,,,,,,,,,,,,,,,,,1731.4447972000344,1731.4447972000344,None,1,1732.9448132699588,,1733.4450386000099,1732.944892999949,1732.944892999949,,,,,,01,2023-03-31_13h55.17.573,divine,2022.2.5,59.923836795525055,
,,,,E,['space'],,,,,,,,,,,,,,,,,,,,,,,,,,,,,0,22,22,22,,,,,,,,,,,,,,,,,,,,,,,,,,,1733.4450386000099,1733.4450386000099,['space'],1,1734.0783691700315,[0.6033016999717802],1734.5785824999912,,,,,,,,01,2023-03-31_13h55.17.573,divine,2022.2.5,59.923836795525055,
,,,,C,None,,,,,,,,,,,,,,,,,,,,,,,,,,,,,0,23,23,23,,,,,,,,,,,,,,,,,,,,,,,,,,,1734.5785824999912,1734.5785824999912,None,1,1736.0786269700154,,,1736.0787856000243,1736.0787856000243,,,,,,01,2023-03-31_13h55.17.573,divine,2022.2.5,59.923836795525055,
,,,,E,None,,,,,,,,,,,,,,,,,,,,,,,,,,,,,0,24,24,24,,,,,,,,,,,,,,,,,,,,,,,,,,,1736.5788173000328,1736.5788173000328,None,1,1738.0793961699353,,,1738.0791425999487,1738.0791425999487,,,,,,01,2023-03-31_13h55.17.573,divine,2022.2.5,59.923836795525055,
,,,,C,['space'],,,,,,,,,,,,,,,,,,,,,,,,,,,,,0,25,25,25,,,,,,,,,,,,,,,,,,,,,,,,,,,1738.5791398000438,1738.5791398000438,['space'],1,1739.3792321700137,[0.7714957999996841],1739.8793964999495,,,,,,,,01,2023-03-31_13h55.17.573,divine,2022.2.5,59.923836795525055,
,,,,A,None,,,,,,,,,,,,,,,,,,,,,,,,,,,,,0,26,26,26,,,,,,,,,,,,,,,,,,,,,,,,,,,1739.8793964999495,1739.8793964999495,None,1,1741.3795232700184,,1741.8796734999632,1741.379590000026,1741.379590000026,,,,,,01,2023-03-31_13h55.17.573,divine,2022.2.5,59.923836795525055,
,,,,D,None,,,,,,,,,,,,,,,,,,,,,,,,,,,,,0,27,27,27,,,,,,,,,,,,,,,,,,,,,,,,,,,1741.8796734999632,1741.8796734999632,None,1,1743.379810569994,,,1743.3799315999495,1743.3799315999495,,,,,,01,2023-03-31_13h55.17.573,divine,2022.2.5,59.923836795525055,
,,,,A,['space'],,,,,,,,,,,,,,,,,,,,,,,,,,,,,0,28,28,28,,,,,,,,,,,,,,,,,,,,,,,,,,,1743.8799844000023,1743.8799844000023,['space'],1,1744.8467482699314,[0.9427974000573158],1745.3469624000136,,,,,,,,01,2023-03-31_13h55.17.573,divine,2022.2.5,59.923836795525055,
,,,,F,None,,,,,,,,,,,,,,,,,,,,,,,,,,,,,0,29,29,29,,,,,,,,,,,,,,,,,,,,,,,,,,,1745.3469624000136,1745.3469624000136,None,1,1746.8471255700103,,,1746.8472522000084,1746.8472522000084,,,,,,01,2023-03-31_13h55.17.573,divine,2022.2.5,59.923836795525055,
,,,,G,['space'],,,,,,,,,,,,,,,,,,,,,,,,,,,,,0,30,30,30,,,,,,,,,,,,,,,,,,,,,,,,,,,1747.3476479999954,1747.3476479999954,None,0,1748.847521069995,,,1748.8505078000017,1748.8505078000017,,,,,,01,2023-03-31_13h55.17.573,divine,2022.2.5,59.923836795525055,
,,,,,,,,,,,,,,,,,,,,,,,,,,,,,,,,,,,,,,,,,,,,,,,,,,,,,,,,,,,,,,,,,,,,,,,,,,,,,1749.3477345999563,,,,,,
